accel_x,accel_y,accel_z,gyro_x,gyro_y,gyro_z
0.26123046875,-0.9012451171875,-0.293212890625,-10.84136962890625,-48.248291015625,4.913330078125
0.2557373046875,-0.9002685546875,-0.3006591796875,-10.32257080078125,-48.45428466796875,5.34820556640625
0.247802734375,-0.897705078125,-0.3074951171875,-9.02557373046875,-48.492431640625,5.767822265625
0.24072265625,-0.890625,-0.3118896484375,-6.89697265625,-48.42376708984375,6.21795654296875
0.234375,-0.8812255859375,-0.31396484375,-4.17327880859375,-48.33984375,6.744384765625
0.232177734375,-0.877685546875,-0.315185546875,-1.19781494140625,-48.2940673828125,7.232666015625
0.229736328125,-0.8826904296875,-0.3189697265625,1.2359619140625,-48.2177734375,7.46917724609375
0.225341796875,-0.8922119140625,-0.3245849609375,2.685546875,-48.03466796875,7.33184814453125
0.21923828125,-0.8948974609375,-0.327880859375,3.02886962890625,-47.8973388671875,7.01904296875
0.2108154296875,-0.8946533203125,-0.328369140625,2.75421142578125,-47.821044921875,6.73675537109375
0.2039794921875,-0.8966064453125,-0.3299560546875,2.31170654296875,-47.82867431640625,6.50787353515625
0.2003173828125,-0.900634765625,-0.3363037109375,2.2735595703125,-47.84393310546875,6.21795654296875
0.1998291015625,-0.9049072265625,-0.3447265625,3.45611572265625,-47.73712158203125,5.9051513671875
0.203125,-0.9091796875,-0.3529052734375,6.06536865234375,-47.3480224609375,5.72967529296875
0.202392578125,-0.915283203125,-0.354248046875,9.8876953125,-47.149658203125,5.63812255859375
0.20263671875,-0.92236328125,-0.3575439453125,14.12200927734375,-46.9818115234375,5.42449951171875
0.1966552734375,-0.94140625,-0.3583984375,16.86859130859375,-46.478271484375,4.9285888671875
0.18798828125,-0.9554443359375,-0.353515625,18.0206298828125,-46.051025390625,4.0283203125
0.1824951171875,-0.9576416015625,-0.341064453125,17.425537109375,-45.379638671875,3.10516357421875
0.18017578125,-0.952880859375,-0.3233642578125,15.472412109375,-44.70062255859375,2.3345947265625
0.18212890625,-0.9407958984375,-0.300048828125,13.1988525390625,-44.2352294921875,1.79290771484375
0.181396484375,-0.9361572265625,-0.2730712890625,11.10076904296875,-44.01397705078125,1.5716552734375
0.1690673828125,-0.9364013671875,-0.2501220703125,9.88006591796875,-44.2352294921875,1.220703125
0.15673828125,-0.9267578125,-0.2376708984375,9.40704345703125,-44.86083984375,0.274658203125
0.1490478515625,-0.9141845703125,-0.2410888671875,9.86480712890625,-45.43304443359375,-0.4119873046875
0.1533203125,-0.89404296875,-0.2493896484375,11.2457275390625,-45.7000732421875,-0.2899169921875
0.154541015625,-0.893798828125,-0.2550048828125,12.64190673828125,-45.4864501953125,0.9918212890625
0.15625,-0.9002685546875,-0.2564697265625,14.5111083984375,-45.17364501953125,2.44140625
0.155029296875,-0.91162109375,-0.2523193359375,16.31927490234375,-44.769287109375,3.59344482421875
0.152099609375,-0.921630859375,-0.2421875,17.55523681640625,-44.36492919921875,4.241943359375
0.1624755859375,-0.917236328125,-0.227783203125,18.096923828125,-43.98345947265625,4.5013427734375
0.166259765625,-0.9210205078125,-0.2174072265625,18.73016357421875,-43.78509521484375,4.87518310546875
0.1693115234375,-0.928955078125,-0.209716796875,20.01190185546875,-43.81561279296875,5.0811767578125
0.170654296875,-0.93701171875,-0.202880859375,21.392822265625,-44.12078857421875,5.0201416015625
0.1754150390625,-0.9415283203125,-0.194580078125,22.05657958984375,-44.677734375,4.69970703125
0.1771240234375,-0.9444580078125,-0.186767578125,21.23260498046875,-45.1812744140625,4.241943359375
0.174072265625,-0.9420166015625,-0.184814453125,20.08819580078125,-45.67718505859375,3.88336181640625
0.165771484375,-0.941650390625,-0.189697265625,20.4010009765625,-46.20361328125,3.70025634765625
0.16064453125,-0.9498291015625,-0.192626953125,21.36993408203125,-46.32568359375,3.65447998046875
0.1597900390625,-0.9569091796875,-0.189697265625,22.27020263671875,-46.45538330078125,3.50189208984375
0.1572265625,-0.9674072265625,-0.184326171875,23.17047119140625,-46.89788818359375,3.5247802734375
0.1505126953125,-0.9776611328125,-0.1759033203125,23.70452880859375,-47.63031005859375,3.60870361328125
0.1441650390625,-0.9830322265625,-0.1650390625,23.81134033203125,-48.54583740234375,3.60107421875
0.136962890625,-0.9852294921875,-0.15576171875,23.84185791015625,-49.530029296875,3.4027099609375
0.12890625,-0.9844970703125,-0.1456298828125,23.834228515625,-50.59051513671875,3.143310546875
0.121826171875,-0.9810791015625,-0.1396484375,23.59771728515625,-51.82647705078125,2.89154052734375
0.1175537109375,-0.979736328125,-0.139892578125,22.9644775390625,-52.86407470703125,2.67791748046875
0.1138916015625,-0.9771728515625,-0.142822265625,22.3236083984375,-53.6041259765625,2.40325927734375
0.1102294921875,-0.97705078125,-0.1439208984375,22.28546142578125,-54.22210693359375,1.9683837890625
0.1136474609375,-0.9742431640625,-0.138427734375,23.21624755859375,-54.718017578125,1.45721435546875
0.1187744140625,-0.9708251953125,-0.132080078125,24.54376220703125,-54.962158203125,1.15203857421875
0.1195068359375,-0.970458984375,-0.1243896484375,25.909423828125,-55.18341064453125,1.03759765625
0.1165771484375,-0.967529296875,-0.124755859375,27.2216796875,-55.29022216796875,0.93841552734375
0.1116943359375,-0.95849609375,-0.1295166015625,28.7322998046875,-55.01556396484375,0.91552734375
0.11083984375,-0.947021484375,-0.133544921875,30.975341796875,-54.49676513671875,1.09100341796875
0.1153564453125,-0.9632568359375,-0.1114501953125,32.379150390625,-53.97796630859375,1.129150390625
0.111328125,-0.9744873046875,-0.086669921875,31.43310546875,-54.107666015625,-0.030517578125
0.1065673828125,-0.9678955078125,-0.06884765625,30.15899658203125,-54.78668212890625,-1.56402587890625
0.104248046875,-0.9610595703125,-0.05322265625,29.815673828125,-56.0150146484375,-2.49481201171875
0.10498046875,-0.9586181640625,-0.0404052734375,28.87725830078125,-57.464599609375,-2.9449462890625
0.1065673828125,-0.9481201171875,-0.0289306640625,26.42059326171875,-58.92181396484375,-3.5247802734375
0.1060791015625,-0.93408203125,-0.0196533203125,23.529052734375,-60.55450439453125,-4.150390625
0.099609375,-0.921630859375,-0.012939453125,20.60699462890625,-62.30926513671875,-4.4403076171875
0.0875244140625,-0.91796875,-0.0093994140625,17.53997802734375,-64.10980224609375,-4.76837158203125
0.07568359375,-0.921630859375,-0.008544921875,14.50347900390625,-65.83404541015625,-5.39398193359375
0.06787109375,-0.928466796875,-0.00146484375,11.98577880859375,-67.61932373046875,-6.06536865234375
0.058349609375,-0.9384765625,0.0108642578125,10.589599609375,-69.793701171875,-6.52313232421875
0.0460205078125,-0.949462890625,0.024169921875,10.162353515625,-72.32666015625,-6.7901611328125
0.0382080078125,-0.956298828125,0.0360107421875,10.32257080078125,-75.042724609375,-7.080078125
0.0357666015625,-0.9566650390625,0.0435791015625,11.14654541015625,-77.79693603515625,-7.13348388671875
0.0340576171875,-0.955078125,0.0457763671875,12.4664306640625,-80.43670654296875,-6.93511962890625
0.0318603515625,-0.9549560546875,0.0462646484375,13.61083984375,-82.916259765625,-6.8206787109375
0.0328369140625,-0.9541015625,0.047607421875,13.84735107421875,-85.1593017578125,-6.77490234375
0.03662109375,-0.94384765625,0.044921875,13.23699951171875,-87.0361328125,-6.6375732421875
0.0426025390625,-0.9268798828125,0.0518798828125,12.48931884765625,-88.4552001953125,-6.09588623046875
0.04345703125,-0.9105224609375,0.0718994140625,12.03155517578125,-89.7674560546875,-5.01251220703125
0.035888671875,-0.899169921875,0.1060791015625,11.7645263671875,-91.48406982421875,-3.6468505859375
0.0201416015625,-0.8900146484375,0.1427001953125,11.3983154296875,-94.0093994140625,-2.13623046875
0.0032958984375,-0.8907470703125,0.174560546875,10.55145263671875,-96.97723388671875,-0.64849853515625
-0.0128173828125,-0.8875732421875,0.1912841796875,9.51385498046875,-100.1129150390625,0.45013427734375
-0.024658203125,-0.8892822265625,0.1923828125,6.93511962890625,-103.5919189453125,1.52587890625
-0.0291748046875,-0.8887939453125,0.185791015625,2.84576416015625,-107.452392578125,2.7313232421875
-0.0552978515625,-0.8939208984375,0.1458740234375,-2.99835205078125,-112.060546875,4.00543212890625
-0.0548095703125,-0.88427734375,0.12109375,-8.392333984375,-115.53955078125,5.28717041015625
-0.05419921875,-0.862548828125,0.0947265625,-12.6800537109375,-118.1488037109375,7.16400146484375
-0.0535888671875,-0.8333740234375,0.0718994140625,-15.31982421875,-120.23162841796875,9.8419189453125
-0.0533447265625,-0.800048828125,0.0533447265625,-15.8233642578125,-122.21527099609375,13.45062255859375
-0.049072265625,-0.77392578125,0.0421142578125,-15.0299072265625,-123.9013671875,17.90618896484375
-0.0662841796875,-0.7537841796875,0.0283203125,-14.04571533203125,-125.35858154296875,23.0255126953125
-0.063232421875,-0.73486328125,0.005615234375,-12.939453125,-126.4495849609375,28.34320068359375
-0.0634765625,-0.7200927734375,-0.00537109375,-11.19232177734375,-126.678466796875,33.99658203125
-0.0650634765625,-0.716064453125,-0.0172119140625,-9.735107421875,-126.73187255859375,39.8712158203125
-0.0687255859375,-0.7220458984375,-0.028076171875,-8.97979736328125,-126.6632080078125,45.6390380859375
-0.074462890625,-0.736572265625,-0.0335693359375,-9.0484619140625,-126.35040283203125,51.06353759765625
-0.0809326171875,-0.749755859375,-0.0343017578125,-9.60540771484375,-125.81634521484375,56.0150146484375
-0.0831298828125,-0.7593994140625,-0.0306396484375,-10.27679443359375,-125.26702880859375,60.67657470703125
-0.0782470703125,-0.7667236328125,-0.025634765625,-10.7421875,-124.8321533203125,65.25421142578125
-0.068115234375,-0.7742919921875,-0.0162353515625,-10.7574462890625,-124.51171875,69.80133056640625
-0.0526123046875,-0.7882080078125,-0.00537109375,-11.02447509765625,-124.4354248046875,74.27978515625
-0.0335693359375,-0.80517578125,0.0072021484375,-12.481689453125,-124.51934814453125,78.5064697265625
-0.0269775390625,-0.8189697265625,0.0069580078125,-16.510009765625,-124.908447265625,82.489013671875
-0.0086669921875,-0.84765625,0.004638671875,-22.57537841796875,-124.6795654296875,86.09771728515625
0.0101318359375,-0.8673095703125,-0.0067138671875,-29.10614013671875,-123.96240234375,89.30206298828125
0.0279541015625,-0.888671875,-0.017822265625,-36.6058349609375,-122.81036376953125,92.1783447265625
0.03662109375,-0.922119140625,-0.0311279296875,-44.65484619140625,-121.0784912109375,94.54345703125
0.037841796875,-0.9525146484375,-0.0439453125,-52.215576171875,-118.96514892578125,95.9625244140625
0.0377197265625,-0.9693603515625,-0.05029296875,-58.03680419921875,-116.61529541015625,96.588134765625
0.037109375,-0.968017578125,-0.0521240234375,-60.47821044921875,-114.25018310546875,96.76361083984375
0.0399169921875,-0.9510498046875,-0.05322265625,-58.55560302734375,-111.9842529296875,96.710205078125
0.0479736328125,-0.9364013671875,-0.053955078125,-52.6885986328125,-109.56573486328125,96.7254638671875
0.0596923828125,-0.9425048828125,-0.0545654296875,-44.44122314453125,-107.04803466796875,96.9390869140625
0.070068359375,-0.9791259765625,-0.0615234375,-36.7279052734375,-104.39300537109375,96.99249267578125
0.076416015625,-1.033447265625,-0.083740234375,-32.56988525390625,-101.49383544921875,96.4202880859375
0.076171875,-1.095458984375,-0.122802734375,-33.8592529296875,-98.19793701171875,95.29876708984375
0.072021484375,-1.1376953125,-0.16796875,-38.10882568359375,-94.3603515625,93.66607666015625
0.0621337890625,-1.14599609375,-0.2120361328125,-42.42706298828125,-90.06500244140625,91.69769287109375
0.0472412109375,-1.1285400390625,-0.2532958984375,-44.34967041015625,-85.2813720703125,89.4775390625
0.030029296875,-1.118896484375,-0.293701171875,-42.327880859375,-79.94842529296875,87.02850341796875
0.008544921875,-1.1328125,-0.3330078125,-36.2701416015625,-74.0203857421875,84.075927734375
-0.0115966796875,-1.1695556640625,-0.36572265625,-27.496337890625,-67.6116943359375,80.4595947265625
-0.0262451171875,-1.2147216796875,-0.384521484375,-18.3258056640625,-61.09619140625,76.2786865234375
-0.039794921875,-1.2652587890625,-0.3951416015625,-11.08551025390625,-54.8553466796875,71.8536376953125
-0.0550537109375,-1.31201171875,-0.3992919921875,-7.62176513671875,-48.97308349609375,67.19207763671875
-0.075927734375,-1.345703125,-0.4036865234375,-8.44573974609375,-43.58673095703125,62.21771240234375
-0.1025390625,-1.355224609375,-0.4210205078125,-11.25335693359375,-38.32244873046875,56.6864013671875
-0.133544921875,-1.3397216796875,-0.4564208984375,-12.8326416015625,-32.5775146484375,50.4302978515625
-0.1641845703125,-1.3084716796875,-0.49169921875,-10.85662841796875,-26.17645263671875,43.76983642578125
-0.201171875,-1.290771484375,-0.50830078125,-4.61578369140625,-19.38629150390625,37.33062744140625
-0.240478515625,-1.2935791015625,-0.5150146484375,4.7454833984375,-12.26806640625,31.3262939453125
-0.2652587890625,-1.29443359375,-0.515380859375,14.35089111328125,-5.8441162109375,25.421142578125
-0.31396484375,-1.3001708984375,-0.480224609375,23.3917236328125,-0.091552734375,20.0347900390625
-0.3565673828125,-1.286376953125,-0.4736328125,34.66796875,4.31060791015625,15.52581787109375
-0.37841796875,-1.244384765625,-0.4669189453125,43.78509521484375,9.62066650390625,11.89422607421875
-0.422607421875,-1.187255859375,-0.458984375,54.229736328125,14.61029052734375,9.8114013671875
-0.462646484375,-1.153564453125,-0.461181640625,70.96099853515625,19.82879638671875,8.94927978515625
-0.389892578125,-1.2869873046875,-0.4837646484375,91.36962890625,24.3682861328125,6.622314453125
-0.3704833984375,-1.3570556640625,-0.470703125,100.6927490234375,23.8037109375,-8.20159912109375
-0.4564208984375,-1.3516845703125,-0.4632568359375,97.58758544921875,27.13775634765625,-21.46148681640625
-0.5006103515625,-1.2962646484375,-0.4498291015625,95.81756591796875,32.71484375,-29.88433837890625
-0.5335693359375,-1.2562255859375,-0.428955078125,96.9085693359375,35.82763671875,-35.7818603515625
-0.52880859375,-1.238525390625,-0.4090576171875,97.0306396484375,36.23199462890625,-41.046142578125
-0.5242919921875,-1.203369140625,-0.3828125,96.3287353515625,36.1785888671875,-46.20361328125
-0.5181884765625,-1.1629638671875,-0.3582763671875,96.771240234375,36.224365234375,-51.17034912109375
-0.5067138671875,-1.1209716796875,-0.3323974609375,98.0682373046875,35.8428955078125,-55.64117431640625
-0.4940185546875,-1.08154296875,-0.30859375,100.42572021484375,34.69085693359375,-59.28802490234375
-0.480712890625,-1.0489501953125,-0.28759765625,103.271484375,32.85980224609375,-62.12615966796875
-0.4683837890625,-1.02197265625,-0.270751953125,105.46875,30.41839599609375,-64.44549560546875
-0.4581298828125,-0.993896484375,-0.2591552734375,106.4453125,27.50396728515625,-66.49017333984375
-0.450439453125,-0.9639892578125,-0.2474365234375,106.0791015625,24.37591552734375,-68.35174560546875
-0.443359375,-0.93017578125,-0.237548828125,104.3548583984375,21.18682861328125,-69.96917724609375
-0.4371337890625,-0.8917236328125,-0.224853515625,101.70745849609375,17.99774169921875,-71.20513916015625
-0.4312744140625,-0.8480224609375,-0.211181640625,98.6785888671875,14.9078369140625,-71.93756103515625
-0.4263916015625,-0.803955078125,-0.19482421875,95.703125,11.9171142578125,-72.05963134765625
-0.42333984375,-0.7620849609375,-0.1788330078125,93.36090087890625,8.96453857421875,-71.55609130859375
-0.4207763671875,-0.72314453125,-0.16357421875,91.63665771484375,5.9967041015625,-70.41168212890625
-0.4178466796875,-0.68603515625,-0.1484375,90.2099609375,2.9296875,-68.70269775390625
-0.414306640625,-0.6514892578125,-0.135009765625,88.61541748046875,-0.23651123046875,-66.436767578125
-0.4107666015625,-0.6165771484375,-0.12158203125,86.9598388671875,-3.4942626953125,-63.63677978515625
-0.406982421875,-0.583740234375,-0.109619140625,85.33477783203125,-6.7596435546875,-60.23406982421875
-0.405517578125,-0.5528564453125,-0.0965576171875,83.73260498046875,-9.979248046875,-56.19049072265625
-0.4036865234375,-0.5279541015625,-0.0831298828125,81.9549560546875,-13.05389404296875,-51.57470703125
-0.4019775390625,-0.5029296875,-0.06982421875,79.9560546875,-16.13616943359375,-46.51641845703125
-0.3995361328125,-0.477783203125,-0.05615234375,77.63671875,-19.195556640625,-41.107177734375
-0.39697265625,-0.4544677734375,-0.0439453125,75.1800537109375,-22.186279296875,-35.36224365234375
-0.3953857421875,-0.4329833984375,-0.0323486328125,72.6470947265625,-25.13885498046875,-29.30450439453125
-0.394287109375,-0.41162109375,-0.0218505859375,69.9310302734375,-28.08380126953125,-22.92633056640625
-0.392822265625,-0.396728515625,-0.0101318359375,66.96319580078125,-30.87615966796875,-16.143798828125
-0.391357421875,-0.3802490234375,0.0020751953125,63.8885498046875,-33.65325927734375,-9.063720703125
-0.38818359375,-0.3544921875,0.0108642578125,60.56976318359375,-36.30828857421875,-1.53350830078125
-0.386474609375,-0.335693359375,0.0223388671875,56.41937255859375,-38.421630859375,6.6375732421875
-0.3865966796875,-0.326416015625,0.0322265625,52.08587646484375,-40.44342041015625,15.2740478515625
-0.389404296875,-0.3154296875,0.0379638671875,48.065185546875,-42.449951171875,24.2919921875
-0.3900146484375,-0.310302734375,0.0438232421875,44.37255859375,-44.281005859375,33.63037109375
-0.3951416015625,-0.305908203125,0.0517578125,41.1376953125,-45.8221435546875,43.212890625
-0.403076171875,-0.3009033203125,0.0576171875,37.01019287109375,-47.40142822265625,53.15399169921875
-0.416259765625,-0.2978515625,0.0640869140625,31.65435791015625,-48.7213134765625,63.68255615234375
-0.43310546875,-0.300048828125,0.071533203125,25.82550048828125,-50.04119873046875,74.63836669921875
-0.4549560546875,-0.29833984375,0.079345703125,20.13397216796875,-51.36871337890625,86.029052734375
-0.482421875,-0.304931640625,0.0888671875,14.19830322265625,-52.71148681640625,97.8546142578125
-0.517578125,-0.3115234375,0.0960693359375,9.04083251953125,-54.13818359375,109.954833984375
-0.5592041015625,-0.3087158203125,0.098388671875,4.45556640625,-55.6182861328125,122.41363525390625
-0.608642578125,-0.31396484375,0.101806640625,-0.70953369140625,-56.82373046875,135.64300537109375
-0.666259765625,-0.3267822265625,0.1044921875,-5.9814453125,-58.31146240234375,149.33013916015625
-0.7275390625,-0.3380126953125,0.1058349609375,-10.76507568359375,-60.1806640625,163.116455078125
-0.798095703125,-0.365478515625,0.1033935546875,-14.99176025390625,-62.40081787109375,176.6357421875
-0.8687744140625,-0.3917236328125,0.1011962890625,-19.5159912109375,-64.63623046875,190.14739990234375
-0.936279296875,-0.4180908203125,0.0997314453125,-24.33013916015625,-66.8792724609375,202.972412109375
-1.0047607421875,-0.4427490234375,0.1005859375,-29.6630859375,-69.19097900390625,214.72930908203125
-1.0810546875,-0.4654541015625,0.102294921875,-35.69793701171875,-71.55609130859375,225.2960205078125
-1.1685791015625,-0.4891357421875,0.103759765625,-42.15240478515625,-73.9288330078125,234.58099365234375
-1.2626953125,-0.5087890625,0.1053466796875,-48.9044189453125,-76.37786865234375,242.46978759765625
-1.361572265625,-0.5234375,0.103515625,-56.84661865234375,-79.09393310546875,249.3133544921875
-1.4610595703125,-0.548828125,0.09716796875,-66.32232666015625,-82.3974609375,249.99237060546875
-1.5552978515625,-0.570068359375,0.0841064453125,-76.16424560546875,-86.28082275390625,249.99237060546875
-1.6351318359375,-0.590087890625,0.0667724609375,-86.73858642578125,-90.545654296875,249.99237060546875
-1.6898193359375,-0.6185302734375,0.0538330078125,-98.541259765625,-94.93255615234375,249.99237060546875
-1.70556640625,-0.63427734375,0.0458984375,-110.74066162109375,-99.029541015625,249.99237060546875
-1.680419921875,-0.64404296875,0.0458984375,-122.955322265625,-102.68402099609375,249.99237060546875
-1.635986328125,-0.6468505859375,0.054443359375,-134.0179443359375,-105.46112060546875,249.99237060546875
-1.5911865234375,-0.64208984375,0.0711669921875,-142.8070068359375,-106.89544677734375,249.99237060546875
-1.558349609375,-0.627685546875,0.0921630859375,-148.8494873046875,-107.23876953125,249.99237060546875
-1.5367431640625,-0.6090087890625,0.1138916015625,-151.947021484375,-106.8115234375,238.8458251953125
-1.5162353515625,-0.5845947265625,0.1300048828125,-151.6265869140625,-105.8502197265625,225.70037841796875
-1.4908447265625,-0.55859375,0.13818359375,-147.59063720703125,-104.46929931640625,211.25030517578125
-1.4586181640625,-0.5382080078125,0.135009765625,-139.923095703125,-102.65350341796875,195.96099853515625
-1.4205322265625,-0.526123046875,0.12060546875,-129.7149658203125,-100.48675537109375,180.267333984375
-1.376953125,-0.527099609375,0.098388671875,-118.9117431640625,-97.930908203125,164.398193359375
-1.328369140625,-0.5330810546875,0.073974609375,-109.56573486328125,-95.14617919921875,148.1781005859375
-1.275390625,-0.5377197265625,0.052001953125,-102.83660888671875,-92.38433837890625,131.5155029296875
-1.2249755859375,-0.5347900390625,0.0291748046875,-99.23553466796875,-89.8284912109375,114.66217041015625
-1.177978515625,-0.525390625,0.0103759765625,-98.53363037109375,-87.47100830078125,97.93853759765625
-1.132568359375,-0.51123046875,-0.005126953125,-100.250244140625,-85.357666015625,81.68792724609375
-1.088134765625,-0.491943359375,-0.0179443359375,-103.59954833984375,-83.587646484375,66.2384033203125
-1.0489501953125,-0.4713134765625,-0.028564453125,-107.85675048828125,-82.03125,51.97906494140625
-1.01904296875,-0.4503173828125,-0.039306640625,-112.37335205078125,-80.71136474609375,39.03961181640625
-0.998291015625,-0.437255859375,-0.0474853515625,-116.943359375,-79.6356201171875,27.42767333984375
-0.990966796875,-0.4259033203125,-0.057373046875,-121.8719482421875,-78.97186279296875,17.09747314453125
-0.9896240234375,-0.4150390625,-0.0726318359375,-127.593994140625,-78.66668701171875,8.209228515625
-0.990966796875,-0.3963623046875,-0.089599609375,-133.97979736328125,-78.42254638671875,0.8392333984375
-0.991943359375,-0.3800048828125,-0.111083984375,-139.9993896484375,-77.84271240234375,-4.82177734375
-0.970458984375,-0.3682861328125,-0.1312255859375,-144.805908203125,-76.416015625,-8.99505615234375
-0.9390869140625,-0.3624267578125,-0.1390380859375,-149.54376220703125,-74.74517822265625,-11.71875
-0.912109375,-0.3585205078125,-0.140625,-154.3121337890625,-73.35662841796875,-12.90130615234375
-0.887939453125,-0.349853515625,-0.1326904296875,-158.721923828125,-72.08251953125,-12.67242431640625
-0.8603515625,-0.33837890625,-0.1212158203125,-162.43743896484375,-70.91522216796875,-11.36016845703125
-0.826416015625,-0.3251953125,-0.1072998046875,-165.3900146484375,-69.88525390625,-9.0179443359375
-0.7862548828125,-0.313720703125,-0.089111328125,-167.36602783203125,-68.817138671875,-5.8135986328125
-0.7435302734375,-0.302490234375,-0.0687255859375,-168.09844970703125,-67.39044189453125,-1.96075439453125
-0.6934814453125,-0.29150390625,-0.0460205078125,-167.32025146484375,-65.45257568359375,2.66265869140625
-0.6375732421875,-0.2791748046875,-0.02294921875,-164.520263671875,-63.140869140625,8.14056396484375
-0.5784912109375,-0.272216796875,0.00341796875,-159.38568115234375,-60.3790283203125,14.47296142578125
-0.5206298828125,-0.270263671875,0.0345458984375,-151.42822265625,-57.27386474609375,21.4385986328125
-0.4676513671875,-0.2752685546875,0.066650390625,-140.32745361328125,-54.00848388671875,28.900146484375
-0.4241943359375,-0.289794921875,0.1007080078125,-126.2054443359375,-50.933837890625,36.85760498046875
-0.39208984375,-0.3167724609375,0.1346435546875,-110.00823974609375,-48.2940673828125,45.2117919921875
-0.3719482421875,-0.3470458984375,0.163330078125,-93.17779541015625,-46.15020751953125,53.65753173828125
-0.358154296875,-0.3765869140625,0.183349609375,-76.416015625,-44.59381103515625,61.9964599609375
-0.353759765625,-0.4139404296875,0.19775390625,-60.08148193359375,-43.60198974609375,70.13702392578125
-0.3570556640625,-0.450927734375,0.20947265625,-44.36492919921875,-43.2891845703125,77.82745361328125
-0.3707275390625,-0.4896240234375,0.218994140625,-29.60205078125,-43.72406005859375,85.21270751953125
-0.39794921875,-0.5396728515625,0.2265625,-15.67840576171875,-44.8760986328125,92.0257568359375
-0.4434814453125,-0.5955810546875,0.228759765625,-2.12860107421875,-46.73004150390625,97.74017333984375
-0.5042724609375,-0.647705078125,0.224853515625,10.71929931640625,-48.98834228515625,101.93634033203125
-0.5687255859375,-0.6864013671875,0.2125244140625,22.64404296875,-51.3458251953125,104.27093505859375
-0.635009765625,-0.7117919921875,0.1959228515625,34.11865234375,-53.497314453125,104.736328125
-0.699951171875,-0.7281494140625,0.17578125,45.166015625,-55.09185791015625,103.23333740234375
-0.759033203125,-0.7322998046875,0.151123046875,55.93109130859375,-55.61065673828125,99.67803955078125
-0.8223876953125,-0.7357177734375,0.13671875,66.59698486328125,-54.95452880859375,94.3145751953125
-0.88330078125,-0.7371826171875,0.1278076171875,77.50701904296875,-53.03955078125,86.95220947265625
-0.9373779296875,-0.738037109375,0.1195068359375,88.44757080078125,-50.0640869140625,77.6214599609375
-0.979248046875,-0.732666015625,0.1077880859375,99.30419921875,-46.28753662109375,66.5435791015625
-1.0089111328125,-0.721435546875,0.08984375,109.85565185546875,-41.93878173828125,54.0618896484375
-1.0294189453125,-0.7042236328125,0.069091796875,119.5831298828125,-37.19329833984375,40.5120849609375
-1.0435791015625,-0.6796875,0.0496826171875,128.2196044921875,-32.1044921875,26.22222900390625
-1.0592041015625,-0.6494140625,0.0384521484375,136.2152099609375,-26.7181396484375,11.566162109375
-1.083984375,-0.62158203125,0.0323486328125,144.06585693359375,-21.331787109375,-3.15093994140625
-1.1202392578125,-0.5989990234375,0.03271484375,152.06146240234375,-16.09039306640625,-17.41790771484375
-1.1680908203125,-0.5880126953125,0.03515625,160.4461669921875,-11.29150390625,-30.76934814453125
-1.2244873046875,-0.5882568359375,0.041748046875,169.097900390625,-7.293701171875,-43.02215576171875
-1.276123046875,-0.5941162109375,0.045654296875,177.86407470703125,-4.50897216796875,-54.168701171875
-1.309814453125,-0.5997314453125,0.0426025390625,186.56158447265625,-3.39508056640625,-64.2242431640625
-1.3292236328125,-0.6004638671875,0.031982421875,194.854736328125,-3.95965576171875,-73.5321044921875
-1.3389892578125,-0.597900390625,0.013671875,202.2705078125,-5.71441650390625,-82.31353759765625
-1.3548583984375,-0.5975341796875,-0.0059814453125,208.21380615234375,-8.46099853515625,-90.9423828125
-1.386962890625,-0.6002197265625,-0.024169921875,212.24212646484375,-12.0391845703125,-99.46441650390625
-1.4320068359375,-0.602783203125,-0.0338134765625,214.385986328125,-16.30401611328125,-107.7880859375
-1.47802734375,-0.6077880859375,-0.036865234375,214.996337890625,-21.17156982421875,-115.7989501953125
-1.51904296875,-0.6158447265625,-0.041015625,214.3707275390625,-26.67236328125,-123.47412109375
-1.5526123046875,-0.6248779296875,-0.051513671875,212.33367919921875,-32.90557861328125,-130.85174560546875
-1.579833984375,-0.6282958984375,-0.0699462890625,208.42742919921875,-39.58892822265625,-138.11492919921875
-1.6038818359375,-0.6307373046875,-0.094970703125,202.606201171875,-46.37908935546875,-145.3399658203125
-1.61572265625,-0.6297607421875,-0.1241455078125,194.9005126953125,-53.01666259765625,-152.4505615234375
-1.6043701171875,-0.6263427734375,-0.1558837890625,185.47821044921875,-59.12017822265625,-159.43145751953125
-1.572265625,-0.6163330078125,-0.1844482421875,174.62158203125,-64.4683837890625,-166.37420654296875
-1.5291748046875,-0.599853515625,-0.218505859375,162.6129150390625,-68.9239501953125,-173.39324951171875
-1.4945068359375,-0.58642578125,-0.237548828125,149.87945556640625,-72.28851318359375,-180.42755126953125
-1.45849609375,-0.568603515625,-0.2532958984375,136.77215576171875,-74.11956787109375,-187.80517578125
-1.4222412109375,-0.5458984375,-0.260498046875,123.321533203125,-74.59259033203125,-194.84710693359375
-1.3895263671875,-0.515380859375,-0.2666015625,110.992431640625,-74.1729736328125,-201.1260986328125
-1.359130859375,-0.478759765625,-0.27294921875,100.74615478515625,-72.85308837890625,-206.4666748046875
-1.3289794921875,-0.4407958984375,-0.28271484375,93.75,-70.9228515625,-210.50262451171875
-1.296630859375,-0.40478515625,-0.294189453125,90.30914306640625,-68.66455078125,-213.0584716796875
-1.2598876953125,-0.376220703125,-0.304443359375,90.057373046875,-66.1773681640625,-214.14947509765625
-1.2227783203125,-0.3564453125,-0.311279296875,92.30804443359375,-63.56048583984375,-213.92822265625
-1.190185546875,-0.341064453125,-0.3118896484375,96.0693359375,-60.96649169921875,-212.6007080078125
-1.16015625,-0.3311767578125,-0.3074951171875,100.54779052734375,-58.4564208984375,-210.3424072265625
-1.1275634765625,-0.3267822265625,-0.3001708984375,104.94232177734375,-56.243896484375,-207.34405517578125
-1.0966796875,-0.3223876953125,-0.2911376953125,108.55865478515625,-54.5196533203125,-203.826904296875
-1.068359375,-0.3170166015625,-0.2806396484375,111.18316650390625,-53.18450927734375,-199.98931884765625
-1.04345703125,-0.3101806640625,-0.2703857421875,112.73956298828125,-52.28424072265625,-195.82366943359375
-1.0186767578125,-0.30419921875,-0.2598876953125,113.24310302734375,-51.84173583984375,-191.34521484375
-0.993408203125,-0.2987060546875,-0.2518310546875,112.61749267578125,-51.8951416015625,-186.5692138671875
-0.9676513671875,-0.2952880859375,-0.24267578125,110.77117919921875,-52.36053466796875,-181.58721923828125
-0.9420166015625,-0.292724609375,-0.23583984375,107.50579833984375,-53.23028564453125,-176.42974853515625
-0.91552734375,-0.2908935546875,-0.228759765625,102.79083251953125,-54.3670654296875,-171.21124267578125
-0.8912353515625,-0.2894287109375,-0.221435546875,96.8475341796875,-55.5572509765625,-166.0614013671875
-0.8687744140625,-0.2872314453125,-0.21435546875,89.56146240234375,-56.7169189453125,-161.07940673828125
-0.845947265625,-0.280517578125,-0.206298828125,81.23779296875,-57.6324462890625,-156.341552734375
-0.8233642578125,-0.2713623046875,-0.1983642578125,72.31903076171875,-58.14361572265625,-151.824951171875
-0.8023681640625,-0.2593994140625,-0.18798828125,63.201904296875,-58.1817626953125,-147.4761962890625
-0.782470703125,-0.2470703125,-0.175537109375,54.32891845703125,-57.7545166015625,-143.24951171875
-0.7664794921875,-0.23486328125,-0.164306640625,45.95947265625,-56.87713623046875,-139.0380859375
-0.755126953125,-0.2227783203125,-0.153076171875,38.21563720703125,-55.60302734375,-134.7198486328125
-0.746337890625,-0.2091064453125,-0.1414794921875,31.43310546875,-53.9093017578125,-130.07354736328125
-0.743408203125,-0.1951904296875,-0.1317138671875,25.81024169921875,-51.8951416015625,-124.83978271484375
-0.7452392578125,-0.182861328125,-0.1212158203125,21.30889892578125,-49.5147705078125,-118.76678466796875
-0.750732421875,-0.171630859375,-0.1126708984375,17.89093017578125,-46.85211181640625,-111.48834228515625
-0.7568359375,-0.163330078125,-0.1036376953125,15.228271484375,-43.96820068359375,-102.84423828125
-0.758544921875,-0.159423828125,-0.094482421875,13.1378173828125,-40.85540771484375,-92.498779296875
-0.7540283203125,-0.1595458984375,-0.0849609375,11.383056640625,-37.5518798828125,-80.57403564453125
-0.744873046875,-0.164306640625,-0.0711669921875,9.68170166015625,-34.06524658203125,-67.352294921875
-0.734619140625,-0.1717529296875,-0.0523681640625,7.71331787109375,-30.3802490234375,-53.18450927734375
-0.729736328125,-0.1820068359375,-0.0301513671875,5.10406494140625,-26.52740478515625,-38.3453369140625
-0.7374267578125,-0.1986083984375,-0.0042724609375,1.6937255859375,-22.6287841796875,-23.06365966796875
-0.7528076171875,-0.217529296875,0.02490234375,-2.47955322265625,-18.7225341796875,-7.51495361328125
-0.7730712890625,-0.232666015625,0.057373046875,-7.37762451171875,-15.11383056640625,8.2244873046875
-0.7947998046875,-0.2447509765625,0.0894775390625,-12.6190185546875,-12.10784912109375,24.05548095703125
-0.81982421875,-0.251220703125,0.120361328125,-17.5323486328125,-9.70458984375,39.74151611328125
-0.8497314453125,-0.2572021484375,0.145263671875,-21.38519287109375,-7.89642333984375,55.206298828125
-0.8819580078125,-0.26806640625,0.163818359375,-24.25384521484375,-6.77490234375,70.38116455078125
-0.910888671875,-0.281494140625,0.1785888671875,-26.91650390625,-6.40106201171875,85.0982666015625
-0.9356689453125,-0.2998046875,0.189697265625,-29.937744140625,-6.73675537109375,99.05242919921875
-0.9619140625,-0.3218994140625,0.200439453125,-33.4930419921875,-7.65228271484375,111.99951171875
-0.990966796875,-0.344482421875,0.212158203125,-37.7044677734375,-9.11712646484375,123.92425537109375
-1.020751953125,-0.3736572265625,0.226806640625,-43.14422607421875,-11.05499267578125,134.98687744140625
-1.0521240234375,-0.4044189453125,0.2445068359375,-49.87335205078125,-13.580322265625,145.22552490234375
-1.08154296875,-0.4334716796875,0.262451171875,-57.54852294921875,-16.571044921875,154.74700927734375
-1.1094970703125,-0.4591064453125,0.2774658203125,-65.81878662109375,-20.05767822265625,163.5894775390625
-1.135009765625,-0.48095703125,0.2874755859375,-74.54681396484375,-23.97918701171875,171.77581787109375
-1.154296875,-0.4986572265625,0.293701171875,-83.7860107421875,-28.3660888671875,179.412841796875
-1.1646728515625,-0.51025390625,0.292724609375,-93.43719482421875,-33.34808349609375,186.47003173828125
-1.16357421875,-0.516357421875,0.2877197265625,-103.057861328125,-38.88702392578125,192.8558349609375
-1.1541748046875,-0.517578125,0.2791748046875,-112.26654052734375,-44.99053955078125,198.41766357421875
-1.13916015625,-0.515625,0.26708984375,-120.84197998046875,-51.5594482421875,203.10211181640625
-1.123779296875,-0.5145263671875,0.2530517578125,-128.85284423828125,-58.4259033203125,206.9091796875
-1.108642578125,-0.5123291015625,0.237060546875,-136.260986328125,-65.338134765625,209.92279052734375
-1.094970703125,-0.5089111328125,0.2210693359375,-142.96722412109375,-72.08251953125,212.2802734375
-1.0823974609375,-0.505126953125,0.2064208984375,-148.9410400390625,-78.4454345703125,214.0960693359375
-1.072021484375,-0.49853515625,0.1922607421875,-154.0374755859375,-84.37347412109375,215.61431884765625
-1.0655517578125,-0.4935302734375,0.1754150390625,-157.928466796875,-89.72930908203125,216.97235107421875
-1.065673828125,-0.4915771484375,0.1591796875,-160.675048828125,-94.4366455078125,218.17779541015625
-1.076171875,-0.491455078125,0.1456298828125,-162.3992919921875,-98.4344482421875,219.3145751953125
-1.0927734375,-0.4942626953125,0.130615234375,-163.0401611328125,-101.8218994140625,220.3521728515625
-1.114501953125,-0.498779296875,0.116455078125,-162.6434326171875,-104.5684814453125,221.16851806640625
-1.1397705078125,-0.5050048828125,0.1038818359375,-161.224365234375,-106.75811767578125,221.74835205078125
-1.16650390625,-0.5118408203125,0.091552734375,-158.66851806640625,-108.43658447265625,221.9390869140625
-1.1890869140625,-0.519287109375,0.079345703125,-154.67071533203125,-109.771728515625,221.5576171875
-1.2073974609375,-0.52783203125,0.07080078125,-148.96392822265625,-110.64910888671875,220.46661376953125
-1.220703125,-0.5416259765625,0.0653076171875,-141.53289794921875,-111.03057861328125,218.48297119140625
-1.228271484375,-0.557861328125,0.0609130859375,-132.6141357421875,-111.0076904296875,215.32440185546875
-1.225830078125,-0.577880859375,0.0589599609375,-122.74932861328125,-110.60333251953125,210.6170654296875
-1.2113037109375,-0.59716796875,0.0570068359375,-112.34283447265625,-109.38262939453125,204.2083740234375
-1.146728515625,-0.6259765625,0.0643310546875,-101.89056396484375,-107.3455810546875,196.014404296875
-1.144775390625,-0.6368408203125,0.052001953125,-89.10369873046875,-99.34234619140625,185.8673095703125
-1.1199951171875,-0.645263671875,0.0513916015625,-79.1168212890625,-94.05517578125,174.47662353515625
-1.088623046875,-0.66015625,0.0567626953125,-72.052001953125,-91.52984619140625,161.36932373046875
-1.0496826171875,-0.6751708984375,0.0635986328125,-65.91033935546875,-88.7603759765625,146.88873291015625
-1.0062255859375,-0.6881103515625,0.0726318359375,-60.85968017578125,-85.80780029296875,131.3323974609375
-0.962646484375,-0.6964111328125,0.080810546875,-56.69403076171875,-82.58056640625,115.04364013671875
-0.9188232421875,-0.698486328125,0.0885009765625,-53.0853271484375,-79.16259765625,98.388671875
-0.8807373046875,-0.6956787109375,0.0904541015625,-49.560546875,-75.6683349609375,81.787109375
-0.8492431640625,-0.686767578125,0.090576171875,-45.9747314453125,-72.33428955078125,65.673828125
-0.821533203125,-0.674072265625,0.088134765625,-42.16766357421875,-69.11468505859375,50.27008056640625
-0.801025390625,-0.658447265625,0.0860595703125,-37.7197265625,-65.9942626953125,35.80474853515625
-0.79345703125,-0.6431884765625,0.082275390625,-32.26470947265625,-62.98828125,22.5067138671875
-0.80078125,-0.6270751953125,0.07666015625,-25.848388671875,-60.1654052734375,10.498046875
-0.8192138671875,-0.6119384765625,0.068115234375,-18.45550537109375,-57.59429931640625,-0.2593994140625
-0.8466796875,-0.599853515625,0.056396484375,-10.24627685546875,-55.13763427734375,-9.82666015625
-0.87939453125,-0.589111328125,0.043701171875,-1.617431640625,-52.825927734375,-18.37921142578125
-0.914306640625,-0.58154296875,0.0306396484375,6.8817138671875,-50.59814453125,-26.092529296875
-0.9486083984375,-0.575439453125,0.01708984375,14.7857666015625,-48.28643798828125,-33.25653076171875
-0.9776611328125,-0.5675048828125,0.003173828125,21.7437744140625,-45.8526611328125,-40.12298583984375
-0.9996337890625,-0.55859375,-0.0111083984375,27.56500244140625,-43.182373046875,-46.91314697265625
-1.0126953125,-0.546630859375,-0.0205078125,32.2723388671875,-40.1458740234375,-53.802490234375
-1.0186767578125,-0.5325927734375,-0.0277099609375,35.95733642578125,-36.75079345703125,-60.89019775390625
-1.018798828125,-0.5179443359375,-0.0325927734375,38.8641357421875,-32.99713134765625,-68.13812255859375
-1.016845703125,-0.503662109375,-0.0360107421875,41.25213623046875,-29.052734375,-75.32501220703125
-1.021240234375,-0.4871826171875,-0.0399169921875,43.39599609375,-24.97100830078125,-82.46612548828125
-1.0390625,-0.4691162109375,-0.0440673828125,45.83740234375,-20.82061767578125,-89.1876220703125
-1.0609130859375,-0.453369140625,-0.0526123046875,48.8128662109375,-16.90673828125,-95.05462646484375
-1.0921630859375,-0.4345703125,-0.056884765625,52.43682861328125,-13.37432861328125,-99.4415283203125
-1.107421875,-0.42138671875,-0.0626220703125,57.2357177734375,-9.77325439453125,-102.84423828125
-1.094482421875,-0.4024658203125,-0.061279296875,62.9425048828125,-6.1492919921875,-105.255126953125
-1.0770263671875,-0.3836669921875,-0.0640869140625,69.98443603515625,-3.1280517578125,-106.536865234375
-1.0643310546875,-0.369384765625,-0.06591796875,78.37677001953125,-0.4119873046875,-107.00225830078125
-1.0576171875,-0.357666015625,-0.06591796875,87.5091552734375,2.0599365234375,-106.98699951171875
-1.05029296875,-0.347412109375,-0.0640869140625,97.14508056640625,4.1351318359375,-106.5673828125
-1.044677734375,-0.339111328125,-0.0615234375,107.269287109375,5.7220458984375,-105.91888427734375
-1.048828125,-0.335205078125,-0.056640625,118.0572509765625,6.927490234375,-105.224609375
-1.070556640625,-0.338134765625,-0.0531005859375,129.37164306640625,7.66754150390625,-104.57611083984375
-1.109375,-0.3475341796875,-0.0504150390625,141.0369873046875,7.8582763671875,-104.0496826171875
-1.1568603515625,-0.360595703125,-0.0447998046875,151.6265869140625,7.659912109375,-103.4088134765625
-1.21484375,-0.389892578125,-0.0477294921875,161.56005859375,6.65283203125,-103.179931640625
-1.2706298828125,-0.4100341796875,-0.051513671875,172.20306396484375,4.82177734375,-103.69110107421875
-1.3271484375,-0.4364013671875,-0.0589599609375,181.32781982421875,2.46429443359375,-104.949951171875
-1.3756103515625,-0.458251953125,-0.06787109375,188.2171630859375,-0.40435791015625,-107.29217529296875
-1.416259765625,-0.4752197265625,-0.0760498046875,192.352294921875,-3.70025634765625,-110.80169677734375
-1.4432373046875,-0.4896240234375,-0.0819091796875,193.90106201171875,-7.31658935546875,-115.48614501953125
-1.4598388671875,-0.5001220703125,-0.0875244140625,192.4285888671875,-11.077880859375,-121.40655517578125
-1.4635009765625,-0.505859375,-0.0892333984375,188.31634521484375,-14.739990234375,-128.5552978515625
-1.4503173828125,-0.505859375,-0.0859375,181.9000244140625,-18.30291748046875,-136.810302734375
-1.427001953125,-0.503662109375,-0.0787353515625,173.7213134765625,-21.58355712890625,-146.17919921875
-1.4013671875,-0.4964599609375,-0.0704345703125,164.1082763671875,-24.444580078125,-156.42547607421875
-1.3763427734375,-0.4837646484375,-0.060546875,153.48052978515625,-26.702880859375,-167.4041748046875
-1.352783203125,-0.4681396484375,-0.0518798828125,142.31109619140625,-28.3050537109375,-178.79486083984375
-1.3291015625,-0.4488525390625,-0.0443115234375,131.0577392578125,-29.36553955078125,-190.185546875
-1.306396484375,-0.4246826171875,-0.038818359375,120.29266357421875,-29.7698974609375,-201.22528076171875
-1.2877197265625,-0.3975830078125,-0.034423828125,110.9619140625,-29.50286865234375,-211.517333984375
-1.2744140625,-0.3681640625,-0.031982421875,103.34014892578125,-28.72467041015625,-220.6878662109375
-1.262451171875,-0.3360595703125,-0.03125,97.86224365234375,-27.618408203125,-228.41644287109375
-1.24853515625,-0.305908203125,-0.03173828125,94.68841552734375,-26.40533447265625,-234.33685302734375
-1.23046875,-0.2801513671875,-0.0301513671875,93.68896484375,-25.32958984375,-238.1591796875
-1.2059326171875,-0.2584228515625,-0.0257568359375,94.6197509765625,-24.49798583984375,-239.83001708984375
-1.1741943359375,-0.24169921875,-0.0191650390625,96.99249267578125,-24.078369140625,-239.44091796875
-1.1343994140625,-0.2283935546875,-0.0133056640625,100.33416748046875,-24.23095703125,-237.091064453125
-1.09033203125,-0.219482421875,-0.0091552734375,104.05731201171875,-25.00152587890625,-232.8948974609375
-1.044189453125,-0.2152099609375,-0.00634765625,107.53631591796875,-26.3214111328125,-227.2186279296875
-0.997802734375,-0.21435546875,-0.0045166015625,110.20660400390625,-28.13720703125,-220.367431640625
-0.952880859375,-0.21337890625,-0.001220703125,111.57989501953125,-30.4107666015625,-212.6007080078125
-0.908935546875,-0.21142578125,0.0029296875,111.42730712890625,-32.92083740234375,-204.13970947265625
-0.8660888671875,-0.208740234375,0.0096435546875,109.7259521484375,-35.58349609375,-195.12939453125
-0.825439453125,-0.2047119140625,0.018798828125,106.57501220703125,-38.36822509765625,-185.64605712890625
-0.7841796875,-0.1993408203125,0.02783203125,101.8524169921875,-41.1376953125,-175.7965087890625
-0.7440185546875,-0.1923828125,0.0352783203125,95.9625244140625,-43.88427734375,-165.6341552734375
-0.705078125,-0.184326171875,0.0419921875,88.8214111328125,-46.4935302734375,-155.1666259765625
-0.6695556640625,-0.1751708984375,0.0469970703125,80.6732177734375,-48.92730712890625,-144.37103271484375
-0.638671875,-0.16552734375,0.0504150390625,71.71630859375,-51.09405517578125,-133.18634033203125
-0.612060546875,-0.1541748046875,0.050537109375,62.1337890625,-53.03192138671875,-121.490478515625
-0.5899658203125,-0.142822265625,0.0487060546875,52.18505859375,-54.66461181640625,-109.12322998046875
-0.57470703125,-0.13232421875,0.0455322265625,42.17529296875,-55.91583251953125,-95.855712890625
-0.5677490234375,-0.124755859375,0.04296875,32.21893310546875,-56.72454833984375,-81.52008056640625
-0.57080078125,-0.12158203125,0.0426025390625,22.39990234375,-57.098388671875,-65.92559814453125
-0.578369140625,-0.122802734375,0.0419921875,12.5885009765625,-57.06787109375,-48.919677734375
-0.587646484375,-0.1319580078125,0.045166015625,2.8228759765625,-56.69403076171875,-30.57098388671875
-0.59814453125,-0.14794921875,0.0511474609375,-6.805419921875,-56.00738525390625,-11.20758056640625
-0.6124267578125,-0.169921875,0.057861328125,-16.29638671875,-55.0689697265625,8.636474609375
-0.63330078125,-0.1904296875,0.0665283203125,-25.76446533203125,-53.85589599609375,28.37371826171875
-0.6624755859375,-0.2044677734375,0.07958984375,-35.3240966796875,-52.37579345703125,47.5006103515625
-0.7022705078125,-0.211669921875,0.09326171875,-44.677734375,-50.84228515625,65.9637451171875
-0.753662109375,-0.2176513671875,0.1077880859375,-53.52783203125,-49.468994140625,84.08355712890625
-0.8106689453125,-0.22998046875,0.12109375,-61.5081787109375,-48.50006103515625,102.0050048828125
-0.86865234375,-0.2406005859375,0.1260986328125,-67.962646484375,-48.21014404296875,119.57550048828125
-0.9219970703125,-0.2593994140625,0.130615234375,-73.6846923828125,-48.33984375,136.84844970703125
-0.971435546875,-0.2799072265625,0.1326904296875,-79.4677734375,-48.919677734375,153.594970703125
-1.02099609375,-0.3028564453125,0.1353759765625,-85.88409423828125,-50.02593994140625,169.5404052734375
-1.08447265625,-0.3177490234375,0.1275634765625,-93.6737060546875,-52.13165283203125,184.50164794921875
-1.1259765625,-0.3427734375,0.1287841796875,-101.3031005859375,-54.4281005859375,198.34136962890625
-1.1514892578125,-0.3612060546875,0.1295166015625,-108.34503173828125,-57.42645263671875,210.73150634765625
-1.1839599609375,-0.375244140625,0.1317138671875,-114.60113525390625,-60.73760986328125,221.36688232421875
-1.2130126953125,-0.3839111328125,0.1346435546875,-119.65179443359375,-64.0411376953125,230.00335693359375
-1.262451171875,-0.3875732421875,0.136474609375,-123.35968017578125,-67.6116943359375,236.7706298828125
-1.316162109375,-0.3916015625,0.137939453125,-126.1138916015625,-72.38006591796875,241.7755126953125
-1.3668212890625,-0.4078369140625,0.1387939453125,-128.3721923828125,-77.8045654296875,245.15533447265625
-1.4080810546875,-0.430419921875,0.1324462890625,-130.83648681640625,-83.7554931640625,247.01690673828125
-1.4425048828125,-0.45654296875,0.1224365234375,-134.70458984375,-89.97344970703125,246.87957763671875
-1.46484375,-0.4837646484375,0.107177734375,-140.9149169921875,-96.74835205078125,244.92645263671875
-1.4739990234375,-0.5098876953125,0.0892333984375,-150.00152587890625,-103.93524169921875,241.37115478515625
-1.4638671875,-0.5264892578125,0.072021484375,-162.05596923828125,-111.1602783203125,236.33575439453125
-1.4422607421875,-0.536865234375,0.0567626953125,-175.92620849609375,-118.6370849609375,229.75921630859375
-1.4068603515625,-0.53515625,0.041259765625,-190.54412841796875,-125.79345703125,221.5423583984375
-1.36279296875,-0.5302734375,0.0279541015625,-204.8492431640625,-132.28607177734375,211.98272705078125
-1.3099365234375,-0.5162353515625,0.019775390625,-218.36090087890625,-137.3291015625,201.263427734375
-1.254638671875,-0.4937744140625,0.0146484375,-230.46875,-141.29638671875,189.3463134765625
-1.1978759765625,-0.46533203125,0.00634765625,-240.50140380859375,-144.2108154296875,176.55181884765625
-1.1378173828125,-0.4327392578125,-0.005859375,-247.42889404296875,-146.26312255859375,163.360595703125
-1.0780029296875,-0.400390625,-0.021728515625,-250.0,-147.3236083984375,150.32196044921875
-1.0255126953125,-0.3677978515625,-0.038818359375,-250.0,-147.40753173828125,137.79449462890625
-0.9837646484375,-0.3419189453125,-0.0572509765625,-247.62725830078125,-146.44622802734375,126.04522705078125
-0.949951171875,-0.31787109375,-0.074462890625,-242.33245849609375,-144.43206787109375,115.29541015625
-0.924560546875,-0.2958984375,-0.0908203125,-235.1837158203125,-141.387939453125,105.87310791015625
-0.904541015625,-0.2772216796875,-0.10400390625,-226.5167236328125,-137.6190185546875,97.991943359375
-0.8856201171875,-0.2645263671875,-0.1103515625,-216.51458740234375,-133.30078125,91.827392578125
-0.8681640625,-0.2587890625,-0.1109619140625,-205.14678955078125,-128.570556640625,87.432861328125
-0.856201171875,-0.2623291015625,-0.1075439453125,-192.6116943359375,-123.69537353515625,84.78546142578125
-0.850830078125,-0.2698974609375,-0.10302734375,-179.38995361328125,-118.9117431640625,83.709716796875
-0.8470458984375,-0.28125,-0.0989990234375,-165.8172607421875,-114.29595947265625,84.1217041015625
-0.8431396484375,-0.2972412109375,-0.09521484375,-152.313232421875,-110.04638671875,85.8917236328125
-0.836181640625,-0.318359375,-0.0911865234375,-139.30511474609375,-106.292724609375,88.7908935546875
-0.828369140625,-0.344482421875,-0.088623046875,-127.12860107421875,-103.08837890625,92.43011474609375
-0.8226318359375,-0.376708984375,-0.08447265625,-116.1346435546875,-100.33416748046875,96.56524658203125
-0.8201904296875,-0.41162109375,-0.07568359375,-106.4910888671875,-97.8546142578125,100.91400146484375
-0.818359375,-0.4488525390625,-0.0616455078125,-98.30474853515625,-95.55816650390625,105.1177978515625
-0.8155517578125,-0.4869384765625,-0.0452880859375,-91.278076171875,-93.3990478515625,108.92486572265625
-0.8106689453125,-0.5262451171875,-0.0274658203125,-85.3424072265625,-91.339111328125,112.08343505859375
-0.8040771484375,-0.5657958984375,-0.010986328125,-80.45196533203125,-89.35546875,114.28070068359375
-0.8046875,-0.6014404296875,0.0040283203125,-76.3702392578125,-87.493896484375,115.30303955078125
-0.8173828125,-0.6322021484375,0.013427734375,-72.74627685546875,-85.54840087890625,115.203857421875
-0.842041015625,-0.6595458984375,0.0208740234375,-69.35882568359375,-83.2366943359375,113.9984130859375
-0.8779296875,-0.6824951171875,0.021728515625,-65.765380859375,-80.50537109375,111.73248291015625
-0.928466796875,-0.702392578125,0.01953125,-61.71417236328125,-77.850341796875,108.5357666015625
-0.9835205078125,-0.7222900390625,0.0128173828125,-56.99920654296875,-75.1190185546875,104.461669921875
-1.0321044921875,-0.742919921875,0.0009765625,-51.52130126953125,-72.18170166015625,99.26605224609375
-1.0682373046875,-0.761474609375,-0.01318359375,-45.3338623046875,-68.82476806640625,92.7581787109375
-1.0777587890625,-0.777099609375,-0.025390625,-38.8641357421875,-64.6514892578125,84.869384765625
-1.06201171875,-0.7886962890625,-0.0302734375,-32.3333740234375,-59.50927734375,75.47760009765625
-1.03369140625,-0.79541015625,-0.0242919921875,-25.87127685546875,-53.466796875,64.5599365234375
-1.0167236328125,-0.7979736328125,-0.0068359375,-19.41680908203125,-46.59271240234375,52.276611328125
-1.028076171875,-0.7926025390625,0.02001953125,-12.8173828125,-39.13116455078125,38.726806640625
-1.056640625,-0.7799072265625,0.0496826171875,-6.03485107421875,-31.1126708984375,24.14703369140625
-1.06884765625,-0.763671875,0.0777587890625,0.946044921875,-22.88818359375,8.8348388671875
-1.060302734375,-0.7452392578125,0.0997314453125,8.1329345703125,-15.106201171875,-6.6375732421875
-1.0462646484375,-0.727294921875,0.1153564453125,15.625,-7.91168212890625,-21.7742919921875
-1.04296875,-0.7086181640625,0.1219482421875,23.44512939453125,-1.39617919921875,-36.43798828125
-1.0552978515625,-0.6854248046875,0.121826171875,31.50177001953125,4.43267822265625,-50.4608154296875
-1.07666015625,-0.6572265625,0.116943359375,39.89410400390625,9.5367431640625,-63.7054443359375
-1.1070556640625,-0.623779296875,0.1083984375,49.29351806640625,13.92364501953125,-76.019287109375
-1.1494140625,-0.5914306640625,0.09814453125,59.87548828125,17.52471923828125,-87.371826171875
-1.19775390625,-0.5615234375,0.0863037109375,71.90704345703125,20.2484130859375,-97.83935546875
-1.2470703125,-0.533935546875,0.0716552734375,85.4644775390625,22.11761474609375,-107.44476318359375
-1.29541015625,-0.511962890625,0.05517578125,100.2960205078125,23.193359375,-116.18804931640625
-1.34521484375,-0.49658203125,0.039794921875,115.875244140625,23.56719970703125,-124.1912841796875
-1.39599609375,-0.486572265625,0.027099609375,131.40106201171875,23.4375,-131.622314453125
-1.4456787109375,-0.4793701171875,0.01708984375,146.18682861328125,22.8424072265625,-138.74053955078125
-1.4945068359375,-0.472412109375,0.01123046875,159.8663330078125,21.75140380859375,-145.66802978515625
-1.5416259765625,-0.4696044921875,0.0062255859375,172.11151123046875,20.24078369140625,-152.51922607421875
-1.575439453125,-0.4674072265625,0.0050048828125,182.09075927734375,18.2647705078125,-159.44671630859375
-1.5931396484375,-0.46435546875,0.0037841796875,189.26239013671875,15.83099365234375,-166.6259765625
-1.593994140625,-0.45947265625,0.0023193359375,193.53485107421875,13.00048828125,-174.102783203125
-1.5765380859375,-0.453369140625,0.001708984375,195.04547119140625,9.97161865234375,-181.81610107421875
-1.5416259765625,-0.447265625,0.0015869140625,193.90106201171875,6.7291259765625,-189.67437744140625
-1.4989013671875,-0.4390869140625,0.000244140625,190.17791748046875,3.36456298828125,-197.70050048828125
-1.449951171875,-0.4296875,-0.0008544921875,184.1888427734375,0.06866455078125,-205.90972900390625
-1.4024658203125,-0.417236328125,-0.0028076171875,176.4068603515625,-3.0059814453125,-214.2333984375
-1.3583984375,-0.4017333984375,-0.005859375,167.3126220703125,-5.79071044921875,-222.5341796875
-1.3201904296875,-0.38134765625,-0.00927734375,157.5469970703125,-8.27789306640625,-230.4840087890625
-1.2880859375,-0.35693359375,-0.012939453125,147.88055419921875,-10.36834716796875,-237.762451171875
-1.2584228515625,-0.3302001953125,-0.0155029296875,139.0533447265625,-12.1002197265625,-243.9727783203125
-1.229248046875,-0.301025390625,-0.0203857421875,131.6680908203125,-13.458251953125,-248.7945556640625
-1.1995849609375,-0.273681640625,-0.024169921875,126.190185546875,-14.617919921875,-250.0
-1.1715087890625,-0.249755859375,-0.0262451171875,122.6806640625,-15.73944091796875,-250.0
-1.1429443359375,-0.230224609375,-0.0264892578125,120.8953857421875,-16.88385009765625,-250.0
-1.1129150390625,-0.2139892578125,-0.026123046875,120.49102783203125,-18.096923828125,-250.0
-1.0804443359375,-0.2020263671875,-0.024658203125,121.03271484375,-19.44732666015625,-246.6888427734375
-1.045654296875,-0.193603515625,-0.0242919921875,122.23052978515625,-21.08001708984375,-241.23382568359375
-1.010498046875,-0.1900634765625,-0.0225830078125,123.443603515625,-23.162841796875,-234.45892333984375
-0.9725341796875,-0.18701171875,-0.022216796875,124.51934814453125,-25.68817138671875,-226.5625
-0.9354248046875,-0.185546875,-0.0216064453125,125.1220703125,-28.6407470703125,-217.73529052734375
-0.8970947265625,-0.1866455078125,-0.021728515625,124.9542236328125,-31.88323974609375,-208.1756591796875
-0.8590087890625,-0.187744140625,-0.0225830078125,123.66485595703125,-35.36224365234375,-198.1658935546875
-0.8232421875,-0.1871337890625,-0.0242919921875,121.19293212890625,-39.031982421875,-187.8662109375
-0.7913818359375,-0.18310546875,-0.023681640625,117.54608154296875,-42.694091796875,-177.42919921875
-0.76318359375,-0.178466796875,-0.02294921875,112.67852783203125,-46.10443115234375,-166.8243408203125
-0.7406005859375,-0.1715087890625,-0.02001953125,106.55975341796875,-49.3011474609375,-155.975341796875
-0.7193603515625,-0.1634521484375,-0.0172119140625,99.44915771484375,-52.276611328125,-144.75250244140625
-0.7008056640625,-0.1561279296875,-0.0145263671875,91.46881103515625,-55.0994873046875,-133.03375244140625
-0.6856689453125,-0.1505126953125,-0.013671875,82.763671875,-57.7392578125,-120.819091796875
-0.6756591796875,-0.147216796875,-0.0146484375,73.40240478515625,-60.11199951171875,-107.879638671875
-0.671630859375,-0.1466064453125,-0.01611328125,63.39263916015625,-62.17193603515625,-94.1314697265625
-0.6756591796875,-0.1484375,-0.0198974609375,52.74200439453125,-63.88092041015625,-79.4525146484375
-0.6800537109375,-0.152587890625,-0.0228271484375,41.44287109375,-65.25421142578125,-63.690185546875
-0.6827392578125,-0.1622314453125,-0.026611328125,29.56390380859375,-66.2841796875,-46.8902587890625
-0.6806640625,-0.176513671875,-0.0294189453125,17.18902587890625,-66.79534912109375,-29.51812744140625
-0.6749267578125,-0.1917724609375,-0.0294189453125,4.364013671875,-66.7266845703125,-12.0849609375
-0.6666259765625,-0.20361328125,-0.0230712890625,-8.60595703125,-65.98663330078125,4.92095947265625
-0.659912109375,-0.206298828125,-0.0128173828125,-21.209716796875,-64.4989013671875,21.2860107421875
-0.66357421875,-0.201416015625,0.0028076171875,-32.85980224609375,-62.43896484375,37.07122802734375
-0.6846923828125,-0.1942138671875,0.0203857421875,-43.20526123046875,-60.06622314453125,52.6275634765625
-0.7161865234375,-0.1912841796875,0.0361328125,-52.0477294921875,-57.6629638671875,68.35174560546875
-0.744873046875,-0.194580078125,0.0479736328125,-59.39483642578125,-55.5267333984375,84.48028564453125
-0.76806640625,-0.211669921875,0.0565185546875,-65.31524658203125,-53.77960205078125,100.91400146484375
-0.80078125,-0.2254638671875,0.0599365234375,-69.52667236328125,-52.22320556640625,117.27142333984375
-0.83984375,-0.2432861328125,0.062744140625,-73.72283935546875,-50.872802734375,133.50677490234375
-0.8841552734375,-0.26708984375,0.06494140625,-78.31573486328125,-49.774169921875,149.505615234375
-0.9298095703125,-0.29443359375,0.0660400390625,-82.70263671875,-49.15618896484375,165.130615234375
-0.973388671875,-0.3250732421875,0.06640625,-86.8072509765625,-48.94256591796875,179.98504638671875
-1.0164794921875,-0.3543701171875,0.0673828125,-90.55328369140625,-49.06463623046875,193.634033203125
-1.06787109375,-0.3800048828125,0.0726318359375,-93.3837890625,-49.37744140625,205.92498779296875
-1.1268310546875,-0.400146484375,0.07861328125,-94.90966796875,-49.73602294921875,216.827392578125
-1.1973876953125,-0.418701171875,0.08837890625,-94.73419189453125,-50.23193359375,226.226806640625
-1.2724609375,-0.4356689453125,0.0997314453125,-92.6055908203125,-51.0101318359375,234.30633544921875
-1.3431396484375,-0.45166015625,0.108154296875,-89.0045166015625,-52.2003173828125,240.7989501953125
-1.4013671875,-0.4697265625,0.1085205078125,-84.7320556640625,-53.8787841796875,245.3155517578125
-1.44482421875,-0.48681640625,0.10302734375,-80.6427001953125,-56.17523193359375,247.53570556640625
-1.473876953125,-0.5096435546875,0.0921630859375,-78.28521728515625,-59.04388427734375,247.283935546875
-1.484619140625,-0.53466796875,0.078857421875,-78.68194580078125,-62.3779296875,244.68994140625
-1.4776611328125,-0.5594482421875,0.06884765625,-82.35931396484375,-66.04766845703125,239.8529052734375
-1.4517822265625,-0.5858154296875,0.068115234375,-89.46990966796875,-69.86236572265625,233.0474853515625
-1.4093017578125,-0.603515625,0.0751953125,-99.8382568359375,-73.6541748046875,224.64752197265625
-1.355712890625,-0.6151123046875,0.0887451171875,-112.03765869140625,-77.4078369140625,214.691162109375
-1.2923583984375,-0.6214599609375,0.104248046875,-124.80926513671875,-80.49774169921875,203.49884033203125
-1.2213134765625,-0.6138916015625,0.1195068359375,-137.16888427734375,-82.64923095703125,191.55120849609375
-1.150634765625,-0.5927734375,0.1339111328125,-147.796630859375,-83.9385986328125,179.03900146484375
-1.0816650390625,-0.5655517578125,0.1494140625,-155.242919921875,-84.4268798828125,166.54205322265625
-1.0152587890625,-0.5350341796875,0.1658935546875,-158.66851806640625,-84.16748046875,154.60968017578125
-0.95947265625,-0.5084228515625,0.1783447265625,-157.7911376953125,-83.51898193359375,143.5699462890625
-0.9150390625,-0.48486328125,0.1864013671875,-153.03802490234375,-82.35931396484375,133.81195068359375
-0.8829345703125,-0.4700927734375,0.1854248046875,-145.0347900390625,-81.0394287109375,125.41961669921875
-0.8631591796875,-0.46435546875,0.179931640625,-134.8114013671875,-79.7882080078125,118.46923828125
-0.8480224609375,-0.4735107421875,0.174560546875,-123.53515625,-78.521728515625,112.7777099609375
-0.8328857421875,-0.4957275390625,0.1724853515625,-112.35809326171875,-77.53753662109375,108.31451416015625
-0.8157958984375,-0.5257568359375,0.17333984375,-101.84478759765625,-76.995849609375,105.04150390625
-0.8028564453125,-0.5574951171875,0.1796875,-91.766357421875,-76.85089111328125,102.85186767578125
-0.7943115234375,-0.58642578125,0.18701171875,-81.573486328125,-77.1026611328125,101.5167236328125
-0.7933349609375,-0.6136474609375,0.1922607421875,-70.8465576171875,-77.87322998046875,100.89111328125
-0.79736328125,-0.6407470703125,0.1907958984375,-59.70001220703125,-79.13970947265625,100.76904296875
-0.8026123046875,-0.6712646484375,0.1871337890625,-48.553466796875,-80.7647705078125,100.77667236328125
-0.806640625,-0.7020263671875,0.1785888671875,-38.01727294921875,-82.57293701171875,100.50201416015625
-0.8067626953125,-0.732666015625,0.1683349609375,-28.594970703125,-84.43450927734375,99.47967529296875
-0.8040771484375,-0.7615966796875,0.15869140625,-20.60699462890625,-86.1663818359375,97.3358154296875
-0.796875,-0.7879638671875,0.1494140625,-13.95416259765625,-87.54730224609375,93.72711181640625
-0.7872314453125,-0.808837890625,0.1383056640625,-8.3770751953125,-88.56964111328125,88.4857177734375
-0.7760009765625,-0.82177734375,0.125,-3.6163330078125,-89.01214599609375,81.39801025390625
-0.7667236328125,-0.825439453125,0.1136474609375,0.63323974609375,-88.60015869140625,72.44873046875
-0.7640380859375,-0.818115234375,0.1024169921875,4.82177734375,-87.10479736328125,61.676025390625
-0.774169921875,-0.8031005859375,0.09130859375,9.5672607421875,-84.43450927734375,49.2401123046875
-0.7998046875,-0.7821044921875,0.0782470703125,15.35797119140625,-80.7037353515625,35.54534912109375
-0.838623046875,-0.761474609375,0.0618896484375,22.27783203125,-76.04217529296875,21.11053466796875
-0.885986328125,-0.7471923828125,0.0430908203125,29.937744140625,-70.770263671875,6.52313232421875
-0.9371337890625,-0.737548828125,0.02294921875,37.74261474609375,-65.24658203125,-7.781982421875
-0.986572265625,-0.7310791015625,-0.00048828125,45.074462890625,-59.80682373046875,-21.6522216796875
-1.0260009765625,-0.723388671875,-0.0257568359375,51.32293701171875,-54.473876953125,-35.0799560546875
-1.05029296875,-0.7135009765625,-0.05029296875,56.02264404296875,-49.224853515625,-48.08807373046875
-1.06103515625,-0.7001953125,-0.0692138671875,59.0362548828125,-43.9910888671875,-60.63079833984375
-1.06640625,-0.6817626953125,-0.0833740234375,60.50872802734375,-38.65814208984375,-72.86834716796875
-1.0794677734375,-0.657470703125,-0.091552734375,61.08856201171875,-33.07342529296875,-84.7015380859375
-1.1044921875,-0.6287841796875,-0.09423828125,61.54632568359375,-27.34375,-95.92437744140625
-1.1356201171875,-0.5963134765625,-0.0950927734375,62.469482421875,-21.73614501953125,-106.3232421875
-1.16357421875,-0.56298828125,-0.096923828125,64.27001953125,-16.45660400390625,-115.6768798828125
-1.18798828125,-0.532470703125,-0.0994873046875,67.352294921875,-11.627197265625,-123.83270263671875
-1.2103271484375,-0.5068359375,-0.105712890625,71.92230224609375,-7.38525390625,-130.68389892578125
-1.232666015625,-0.4893798828125,-0.1153564453125,77.5909423828125,-3.814697265625,-136.383056640625
-1.2562255859375,-0.4794921875,-0.1273193359375,84.197998046875,-0.96893310546875,-141.0675048828125
-1.27490234375,-0.473876953125,-0.1397705078125,91.1865234375,1.24359130859375,-144.92034912109375
-1.2869873046875,-0.470458984375,-0.1490478515625,98.1903076171875,2.87628173828125,-148.0865478515625
-1.2998046875,-0.465576171875,-0.1602783203125,105.072021484375,4.0283203125,-150.726318359375
-1.3182373046875,-0.4617919921875,-0.1710205078125,111.74774169921875,4.84466552734375,-153.00750732421875
-1.341064453125,-0.45751953125,-0.182861328125,118.08013916015625,5.4168701171875,-155.00640869140625
-1.3656005859375,-0.453125,-0.19775390625,123.93951416015625,5.83648681640625,-156.7535400390625
-1.3896484375,-0.44921875,-0.212890625,129.180908203125,6.09588623046875,-158.2183837890625
-1.4083251953125,-0.4466552734375,-0.2259521484375,133.7127685546875,6.2713623046875,-159.332275390625
-1.4190673828125,-0.4464111328125,-0.236328125,137.2833251953125,6.43157958984375,-160.04180908203125
-1.419921875,-0.446533203125,-0.2412109375,139.68658447265625,6.61468505859375,-160.3546142578125
-1.4083251953125,-0.4447021484375,-0.2435302734375,140.86151123046875,6.77490234375,-160.2935791015625
-1.3839111328125,-0.4398193359375,-0.2423095703125,140.899658203125,6.9122314453125,-159.912109375
-1.35595703125,-0.4246826171875,-0.23779296875,140.228271484375,7.1563720703125,-159.30938720703125
-1.3067626953125,-0.4066162109375,-0.2327880859375,139.71710205078125,7.85064697265625,-158.98895263671875
-1.2581787109375,-0.3875732421875,-0.223876953125,139.862060546875,8.4228515625,-158.1268310546875
-1.201904296875,-0.36572265625,-0.2119140625,140.49530029296875,9.39178466796875,-156.9061279296875
-1.148193359375,-0.3428955078125,-0.198486328125,141.937255859375,10.35308837890625,-155.6396484375
-1.0960693359375,-0.3194580078125,-0.182373046875,144.35577392578125,11.2762451171875,-154.541015625
-1.0462646484375,-0.2998046875,-0.1661376953125,147.57537841796875,12.115478515625,-153.5186767578125
-1.0,-0.28369140625,-0.150146484375,151.03912353515625,12.68768310546875,-152.54974365234375
-0.9573974609375,-0.2711181640625,-0.1361083984375,154.28924560546875,12.9241943359375,-151.5655517578125
-0.91796875,-0.260498046875,-0.1231689453125,156.82220458984375,12.61138916015625,-150.36773681640625
-0.881103515625,-0.250732421875,-0.1109619140625,158.4014892578125,11.7950439453125,-148.79608154296875
-0.843994140625,-0.24658203125,-0.0999755859375,158.905029296875,10.55145263671875,-146.79718017578125
-0.8126220703125,-0.244873046875,-0.0888671875,158.04290771484375,8.82720947265625,-144.3328857421875
-0.784912109375,-0.242431640625,-0.0797119140625,155.670166015625,6.6375732421875,-141.42608642578125
-0.76025390625,-0.2392578125,-0.0728759765625,152.04620361328125,4.058837890625,-138.02337646484375
-0.73779296875,-0.2349853515625,-0.06689453125,147.39990234375,1.16729736328125,-134.063720703125
-0.718994140625,-0.229248046875,-0.0634765625,142.059326171875,-1.88446044921875,-129.49371337890625
-0.7034912109375,-0.2215576171875,-0.0611572265625,136.3525390625,-4.974365234375,-124.298095703125
-0.6927490234375,-0.214599609375,-0.0595703125,130.48553466796875,-8.04901123046875,-118.3929443359375
-0.68505859375,-0.2086181640625,-0.0595703125,124.5880126953125,-11.07025146484375,-111.75537109375
-0.6800537109375,-0.203125,-0.0604248046875,118.69049072265625,-14.03045654296875,-104.53033447265625
-0.676513671875,-0.1990966796875,-0.0615234375,112.884521484375,-16.8304443359375,-96.62628173828125
-0.6722412109375,-0.195068359375,-0.0621337890625,107.147216796875,-19.41680908203125,-88.03558349609375
-0.667236328125,-0.1932373046875,-0.06201171875,101.81427001953125,-21.79718017578125,-78.8116455078125
-0.6651611328125,-0.1959228515625,-0.062744140625,96.61102294921875,-23.91815185546875,-69.12994384765625
-0.6697998046875,-0.2021484375,-0.0643310546875,91.19415283203125,-25.70343017578125,-59.2193603515625
-0.6846923828125,-0.2103271484375,-0.063232421875,85.36529541015625,-27.04620361328125,-49.18670654296875
-0.7091064453125,-0.2198486328125,-0.061767578125,79.06341552734375,-27.80914306640625,-39.02435302734375
-0.739990234375,-0.2332763671875,-0.0560302734375,72.2808837890625,-28.0609130859375,-28.66363525390625
-0.7750244140625,-0.250732421875,-0.04833984375,65.04058837890625,-27.99224853515625,-18.13507080078125
-0.8087158203125,-0.2718505859375,-0.038330078125,57.43408203125,-27.77099609375,-7.5225830078125
-0.8394775390625,-0.2943115234375,-0.030029296875,49.69024658203125,-27.374267578125,3.0364990234375
-0.8663330078125,-0.31640625,-0.0198974609375,41.90826416015625,-26.7181396484375,13.28277587890625
-0.897705078125,-0.3358154296875,-0.0103759765625,34.24072265625,-25.81787109375,22.97210693359375
-0.9310302734375,-0.3538818359375,-0.0018310546875,26.9012451171875,-24.5513916015625,32.00531005859375
-0.9532470703125,-0.3687744140625,0.0084228515625,20.02716064453125,-23.06365966796875,40.3900146484375
-0.9609375,-0.3760986328125,0.02001953125,13.98468017578125,-21.4080810546875,48.16436767578125
-0.9583740234375,-0.376708984375,0.0311279296875,9.4757080078125,-19.52362060546875,55.16815185546875
-0.952392578125,-0.3734130859375,0.046630859375,7.10296630859375,-17.333984375,61.25640869140625
-0.9510498046875,-0.3690185546875,0.06298828125,7.080078125,-14.892578125,66.3909912109375
-0.9554443359375,-0.36572265625,0.0784912109375,9.25445556640625,-12.2833251953125,70.6939697265625
-0.9654541015625,-0.3665771484375,0.09619140625,13.29803466796875,-9.69696044921875,74.4171142578125
-0.9825439453125,-0.373046875,0.111572265625,18.86749267578125,-7.32421875,77.81219482421875
-1.0084228515625,-0.3868408203125,0.1253662109375,25.4364013671875,-5.2642822265625,81.21490478515625
-1.037841796875,-0.4085693359375,0.1376953125,32.20367431640625,-3.65447998046875,84.84649658203125
-1.063720703125,-0.4342041015625,0.1500244140625,38.2537841796875,-2.55584716796875,88.87481689453125
-1.077392578125,-0.460693359375,0.1614990234375,42.7093505859375,-1.99127197265625,93.2464599609375
-1.0745849609375,-0.4853515625,0.174560546875,45.09735107421875,-1.97601318359375,97.625732421875
-1.05615234375,-0.50537109375,0.1900634765625,45.29571533203125,-2.41851806640625,101.654052734375
-1.029052734375,-0.518310546875,0.20654296875,43.5638427734375,-3.173828125,104.98809814453125
-0.99365234375,-0.524658203125,0.2254638671875,40.21453857421875,-4.0740966796875,107.29217529296875
-0.9510498046875,-0.52587890625,0.24658203125,35.46142578125,-5.0811767578125,108.16192626953125
-0.90576171875,-0.5218505859375,0.2696533203125,30.11322021484375,-6.3323974609375,107.666015625
-0.8607177734375,-0.5123291015625,0.2928466796875,25.00152587890625,-7.7972412109375,105.81207275390625
-0.8177490234375,-0.502685546875,0.31396484375,20.538330078125,-9.42230224609375,102.72216796875
-0.7777099609375,-0.4984130859375,0.328857421875,16.70074462890625,-11.260986328125,98.57940673828125
-0.7403564453125,-0.4952392578125,0.33544921875,13.24462890625,-13.3209228515625,93.49822998046875
-0.705078125,-0.4920654296875,0.3382568359375,10.27679443359375,-15.31219482421875,87.70751953125
-0.674560546875,-0.4910888671875,0.34033203125,8.07952880859375,-17.11273193359375,81.4208984375
-0.651611328125,-0.489013671875,0.3421630859375,6.98089599609375,-18.63861083984375,74.91302490234375
-0.6368408203125,-0.488525390625,0.344482421875,7.0343017578125,-19.95086669921875,68.47381591796875
-0.630859375,-0.4908447265625,0.34716796875,8.14056396484375,-21.05712890625,62.2711181640625
-0.6334228515625,-0.49609375,0.3529052734375,10.15472412109375,-21.90399169921875,56.37359619140625
-0.642578125,-0.5045166015625,0.361083984375,12.74871826171875,-22.62115478515625,50.95672607421875
-0.6553955078125,-0.5147705078125,0.368408203125,15.64788818359375,-23.3154296875,46.0205078125
-0.6739501953125,-0.5267333984375,0.375,18.61572265625,-24.0936279296875,41.58782958984375
-0.6949462890625,-0.5418701171875,0.3809814453125,21.41571044921875,-25.07781982421875,37.5823974609375
-0.7158203125,-0.5579833984375,0.38916015625,23.85711669921875,-26.3824462890625,33.82110595703125
-0.7335205078125,-0.5750732421875,0.3975830078125,25.9552001953125,-27.97698974609375,30.03692626953125
-0.7490234375,-0.591552734375,0.4068603515625,27.97698974609375,-29.8614501953125,25.9246826171875
-0.7603759765625,-0.6058349609375,0.4166259765625,30.1055908203125,-31.97479248046875,21.23260498046875
-0.767333984375,-0.6182861328125,0.4259033203125,32.27996826171875,-34.1796875,15.63262939453125
-0.774169921875,-0.6268310546875,0.431396484375,34.30938720703125,-36.35406494140625,8.9263916015625
-0.7830810546875,-0.6328125,0.4332275390625,36.07177734375,-38.4368896484375,0.946044921875
-0.8001708984375,-0.6346435546875,0.4320068359375,37.4908447265625,-40.38238525390625,-8.3465576171875
-0.8258056640625,-0.6337890625,0.428466796875,38.5284423828125,-42.15240478515625,-18.83697509765625
-0.860107421875,-0.634033203125,0.419921875,38.87176513671875,-43.95294189453125,-30.3802490234375
-0.9022216796875,-0.6334228515625,0.4044189453125,38.06304931640625,-45.8221435546875,-42.74749755859375
-0.9473876953125,-0.629638671875,0.383544921875,36.04888916015625,-47.73712158203125,-55.51910400390625
-0.9918212890625,-0.6231689453125,0.357666015625,32.9742431640625,-49.56817626953125,-68.26019287109375
-1.03369140625,-0.615966796875,0.3306884765625,29.09088134765625,-51.26190185546875,-80.72662353515625
-1.0712890625,-0.6063232421875,0.3035888671875,24.59716796875,-52.72674560546875,-92.56744384765625
-1.1072998046875,-0.5941162109375,0.2757568359375,19.70672607421875,-53.8177490234375,-103.59954833984375
-1.1431884765625,-0.5802001953125,0.2493896484375,14.62554931640625,-54.48150634765625,-113.62457275390625
-1.1783447265625,-0.5635986328125,0.22265625,9.60540771484375,-54.74853515625,-122.35260009765625
-1.2091064453125,-0.543212890625,0.1971435546875,4.89044189453125,-54.66461181640625,-129.50897216796875
-1.235107421875,-0.5211181640625,0.172607421875,0.75531005859375,-54.2449951171875,-134.8876953125
-1.267578125,-0.50048828125,0.1480712890625,-2.44903564453125,-53.5430908203125,-138.28277587890625
-1.314208984375,-0.483154296875,0.12451171875,-4.4403076171875,-52.60467529296875,-139.56451416015625
-1.3614501953125,-0.4698486328125,0.1014404296875,-5.40924072265625,-51.53656005859375,-138.51165771484375
-1.3812255859375,-0.46240234375,0.0838623046875,-6.11114501953125,-50.36163330078125,-135.16998291015625
-1.367919921875,-0.454833984375,0.0762939453125,-6.7596435546875,-49.13330078125,-129.87518310546875
-1.33740234375,-0.447021484375,0.0775146484375,-6.8206787109375,-47.760009765625,-123.25286865234375
-1.301513671875,-0.4373779296875,0.0826416015625,-5.98907470703125,-46.2799072265625,-115.98968505859375
-1.2608642578125,-0.4256591796875,0.0899658203125,-4.45556640625,-44.77691650390625,-108.63494873046875
-1.2095947265625,-0.408203125,0.09765625,-2.61688232421875,-43.45703125,-101.7913818359375
-1.1502685546875,-0.3848876953125,0.1029052734375,-0.63323974609375,-42.48809814453125,-95.5657958984375
-1.0899658203125,-0.3592529296875,0.104736328125,1.617431640625,-41.92352294921875,-90.0421142578125
-1.0369873046875,-0.3345947265625,0.103515625,4.0740966796875,-41.8548583984375,-85.06011962890625
-0.99609375,-0.3153076171875,0.101318359375,6.40869140625,-42.3126220703125,-80.39093017578125
-0.96826171875,-0.3004150390625,0.0948486328125,8.3770751953125,-43.426513671875,-75.59967041015625
-0.9503173828125,-0.2886962890625,0.0869140625,9.6435546875,-45.257568359375,-70.24383544921875
-0.935546875,-0.28076171875,0.07958984375,10.1470947265625,-47.8668212890625,-63.873291015625
-0.9185791015625,-0.276123046875,0.0704345703125,9.8419189453125,-51.29241943359375,-56.1676025390625
-0.895263671875,-0.277099609375,0.0621337890625,8.6212158203125,-55.419921875,-47.05047607421875
-0.8634033203125,-0.2845458984375,0.056396484375,6.20269775390625,-60.15777587890625,-36.72027587890625
-0.8233642578125,-0.299072265625,0.051025390625,2.23541259765625,-65.37628173828125,-25.69580078125
-0.7779541015625,-0.315673828125,0.0472412109375,-3.74603271484375,-70.91522216796875,-14.7247314453125
-0.731201171875,-0.332763671875,0.044677734375,-11.90948486328125,-76.48468017578125,-4.608154296875
-0.684814453125,-0.345458984375,0.0440673828125,-22.03369140625,-81.9549560546875,4.03594970703125
-0.6419677734375,-0.35400390625,0.0433349609375,-33.60748291015625,-87.1429443359375,10.833740234375
-0.6065673828125,-0.3572998046875,0.044677734375,-45.96710205078125,-91.85791015625,15.69366455078125
-0.580322265625,-0.353515625,0.04345703125,-58.4869384765625,-95.977783203125,18.59283447265625
-0.5634765625,-0.343017578125,0.0413818359375,-70.39642333984375,-99.41864013671875,19.71435546875
-0.55615234375,-0.3253173828125,0.040283203125,-80.87921142578125,-102.14996337890625,19.4549560546875
-0.555908203125,-0.30419921875,0.0374755859375,-89.34783935546875,-104.13360595703125,18.28765869140625
-0.5618896484375,-0.2825927734375,0.03466796875,-95.39031982421875,-105.43060302734375,16.7388916015625
-0.571044921875,-0.267333984375,0.03076171875,-98.83880615234375,-106.19354248046875,15.22064208984375
-0.5823974609375,-0.2630615234375,0.0247802734375,-99.9755859375,-106.597900390625,14.068603515625
-0.593505859375,-0.2674560546875,0.015625,-99.51019287109375,-106.8115234375,13.61083984375
-0.605712890625,-0.281005859375,0.00390625,-98.13690185546875,-106.92596435546875,14.09149169921875
-0.6192626953125,-0.2991943359375,-0.010009765625,-96.38214111328125,-107.15484619140625,15.61737060546875
-0.632568359375,-0.3201904296875,-0.0233154296875,-94.76470947265625,-107.65838623046875,18.15032958984375
-0.6444091796875,-0.3448486328125,-0.0352783203125,-93.6431884765625,-108.5357666015625,21.61407470703125
-0.656494140625,-0.3736572265625,-0.0484619140625,-93.37615966796875,-109.8175048828125,25.76446533203125
-0.6685791015625,-0.4033203125,-0.0576171875,-94.20013427734375,-111.39678955078125,30.29632568359375
-0.6781005859375,-0.42822265625,-0.0611572265625,-96.16851806640625,-113.28887939453125,34.912109375
-0.6868896484375,-0.4530029296875,-0.0606689453125,-99.1973876953125,-115.45562744140625,39.306640625
-0.6966552734375,-0.4774169921875,-0.0601806640625,-102.82135009765625,-117.79022216796875,43.22052001953125
-0.7080078125,-0.499755859375,-0.063232421875,-106.54449462890625,-120.086669921875,46.38671875
-0.7169189453125,-0.5177001953125,-0.067626953125,-109.649658203125,-122.23052978515625,48.7518310546875
-0.722900390625,-0.53466796875,-0.07470703125,-111.63330078125,-124.053955078125,50.47607421875
-0.7275390625,-0.556396484375,-0.0869140625,-112.4114990234375,-125.57220458984375,51.90277099609375
-0.733154296875,-0.587646484375,-0.0992431640625,-112.35809326171875,-126.77764892578125,53.2073974609375
-0.7432861328125,-0.62548828125,-0.109130859375,-111.968994140625,-127.6397705078125,54.351806640625
-0.7569580078125,-0.6661376953125,-0.1138916015625,-111.8011474609375,-128.24249267578125,55.09185791015625
-0.7762451171875,-0.7088623046875,-0.1156005859375,-112.1673583984375,-128.63922119140625,55.21392822265625
-0.801513671875,-0.749267578125,-0.1142578125,-113.02947998046875,-128.8909912109375,54.50439453125
-0.8336181640625,-0.7864990234375,-0.1102294921875,-114.35699462890625,-129.058837890625,53.01666259765625
-0.870849609375,-0.82080078125,-0.1094970703125,-115.91339111328125,-129.2877197265625,50.96435546875
-0.9095458984375,-0.8504638671875,-0.1114501953125,-117.340087890625,-129.5318603515625,48.7213134765625
-0.942626953125,-0.8778076171875,-0.115478515625,-118.41583251953125,-130.0048828125,46.56219482421875
-0.9609375,-0.9097900390625,-0.1177978515625,-119.27032470703125,-130.59234619140625,44.61669921875
-0.9617919921875,-0.9473876953125,-0.1158447265625,-120.452880859375,-131.12640380859375,42.70172119140625
-0.9432373046875,-0.9810791015625,-0.10693359375,-122.528076171875,-131.40106201171875,40.36712646484375
-0.90869140625,-1.00537109375,-0.0911865234375,-125.54931640625,-131.29425048828125,37.01019287109375
-0.8609619140625,-1.014892578125,-0.064697265625,-129.2266845703125,-130.76019287109375,32.27996826171875
-0.8084716796875,-1.01025390625,-0.034423828125,-132.659912109375,-129.93621826171875,26.2298583984375
-0.764892578125,-0.9962158203125,-0.0032958984375,-134.94110107421875,-128.997802734375,19.2413330078125
-0.74169921875,-0.9801025390625,0.016357421875,-135.5133056640625,-128.04412841796875,11.98577880859375
-0.734375,-0.966552734375,0.021728515625,-134.1705322265625,-127.09808349609375,5.18035888671875
-0.72412109375,-0.956298828125,0.0159912109375,-131.00433349609375,-126.1444091796875,-0.6561279296875
-0.7042236328125,-0.9510498046875,0.002685546875,-126.07574462890625,-125.09918212890625,-5.2490234375
-0.6807861328125,-0.9532470703125,-0.0179443359375,-119.62890625,-123.779296875,-8.6669921875
-0.6605224609375,-0.96142578125,-0.0374755859375,-112.41912841796875,-121.91009521484375,-11.0626220703125
-0.642578125,-0.9688720703125,-0.0567626953125,-105.07965087890625,-119.36187744140625,-12.725830078125
-0.6295166015625,-0.9697265625,-0.079345703125,-98.114013671875,-116.0888671875,-13.916015625
-0.6243896484375,-0.962890625,-0.1044921875,-91.52984619140625,-111.9232177734375,-14.91546630859375
-0.62939453125,-0.94921875,-0.132080078125,-84.7320556640625,-106.86492919921875,-15.76995849609375
-0.644287109375,-0.9356689453125,-0.1595458984375,-77.15606689453125,-100.8758544921875,-16.36505126953125
-0.666015625,-0.9266357421875,-0.1785888671875,-68.54248046875,-93.97125244140625,-16.6015625
-0.6923828125,-0.9111328125,-0.190673828125,-58.807373046875,-86.3037109375,-16.4031982421875
-0.72412109375,-0.9254150390625,-0.1898193359375,-48.95782470703125,-77.57568359375,-15.76995849609375
-0.7467041015625,-0.931396484375,-0.181396484375,-37.7044677734375,-69.03076171875,-15.29693603515625
-0.75439453125,-0.93505859375,-0.166259765625,-26.48162841796875,-60.455322265625,-15.228271484375
-0.744873046875,-0.93212890625,-0.146484375,-15.43426513671875,-52.1697998046875,-15.9912109375
-0.7242431640625,-0.9244384765625,-0.1231689453125,-4.95147705078125,-44.4488525390625,-17.9901123046875
-0.6978759765625,-0.9111328125,-0.0994873046875,4.37164306640625,-37.4908447265625,-21.3165283203125
-0.6661376953125,-0.89306640625,-0.073974609375,12.2222900390625,-31.36444091796875,-25.82550048828125
-0.6302490234375,-0.8753662109375,-0.0458984375,18.51654052734375,-26.19171142578125,-31.2652587890625
-0.5899658203125,-0.8564453125,-0.0194091796875,23.2391357421875,-22.03369140625,-37.322998046875
-0.5487060546875,-0.83642578125,0.006103515625,26.580810546875,-18.79119873046875,-43.6859130859375
-0.50634765625,-0.8143310546875,0.0283203125,28.778076171875,-16.326904296875,-50.0946044921875
-0.465087890625,-0.7906494140625,0.04736328125,30.12847900390625,-14.3890380859375,-56.29730224609375
-0.4263916015625,-0.76611328125,0.0626220703125,31.0821533203125,-12.68768310546875,-61.981201171875
-0.39306640625,-0.7440185546875,0.0743408203125,31.9061279296875,-11.29913330078125,-66.99371337890625
-0.36474609375,-0.726318359375,0.0830078125,32.79876708984375,-10.09368896484375,-71.2432861328125
-0.3428955078125,-0.711181640625,0.0869140625,33.905029296875,-9.033203125,-74.6917724609375
-0.3302001953125,-0.6973876953125,0.0863037109375,35.40802001953125,-8.1634521484375,-77.30865478515625
-0.328125,-0.6861572265625,0.0830078125,37.5213623046875,-7.39288330078125,-79.04815673828125
-0.334228515625,-0.6788330078125,0.0732421875,40.19927978515625,-6.61468505859375,-79.9102783203125
-0.3450927734375,-0.682861328125,0.0599365234375,43.19000244140625,-5.72967529296875,-79.91790771484375
-0.3558349609375,-0.6982421875,0.0435791015625,46.24176025390625,-4.7149658203125,-79.2236328125
-0.3643798828125,-0.7213134765625,0.03125,48.95782470703125,-3.56292724609375,-77.94952392578125
-0.3714599609375,-0.747802734375,0.0203857421875,51.17034912109375,-2.28118896484375,-76.33209228515625
-0.382080078125,-0.7769775390625,0.012451171875,52.8411865234375,-0.92315673828125,-74.44000244140625
-0.3934326171875,-0.8099365234375,0.010009765625,53.924560546875,0.4119873046875,-72.57080078125
-0.405029296875,-0.8453369140625,0.01513671875,54.38232421875,1.5716552734375,-71.03729248046875
-0.4171142578125,-0.885498046875,0.0281982421875,54.168701171875,2.41851806640625,-70.06072998046875
-0.4267578125,-0.9189453125,0.0478515625,54.13055419921875,2.79998779296875,-69.9462890625
-0.4364013671875,-0.9473876953125,0.0760498046875,54.49676513671875,2.6397705078125,-70.79315185546875
-0.4466552734375,-0.9783935546875,0.1085205078125,55.206298828125,1.9073486328125,-72.76153564453125
-0.4532470703125,-1.0101318359375,0.1407470703125,56.21337890625,0.7171630859375,-76.02691650390625
-0.4560546875,-1.04296875,0.1700439453125,57.16705322265625,-0.91552734375,-80.48248291015625
-0.4571533203125,-1.0732421875,0.19775390625,57.67059326171875,-2.92205810546875,-86.12060546875
-0.462646484375,-1.098876953125,0.2181396484375,57.39593505859375,-5.24139404296875,-92.64373779296875
-0.4761962890625,-1.118408203125,0.23193359375,56.21337890625,-7.74383544921875,-99.58648681640625
-0.49267578125,-1.1317138671875,0.236083984375,54.3975830078125,-10.3607177734375,-106.38427734375
-0.5068359375,-1.1402587890625,0.2371826171875,52.48260498046875,-13.14544677734375,-112.4114990234375
-0.5196533203125,-1.1517333984375,0.24853515625,50.88043212890625,-16.3726806640625,-117.33245849609375
-0.533935546875,-1.16552734375,0.2645263671875,49.560546875,-20.32470703125,-121.2005615234375
-0.5479736328125,-1.1788330078125,0.27880859375,48.126220703125,-24.96337890625,-124.3743896484375
-0.5560302734375,-1.1856689453125,0.2850341796875,45.8526611328125,-29.93011474609375,-127.1820068359375
-0.5537109375,-1.1868896484375,0.2890625,42.3736572265625,-35.02655029296875,-129.8828125
-0.5423583984375,-1.18359375,0.28955078125,37.628173828125,-39.8712158203125,-132.7056884765625
-0.52978515625,-1.1702880859375,0.2877197265625,32.04345703125,-44.12841796875,-135.70404052734375
-0.525146484375,-1.1475830078125,0.2801513671875,26.34429931640625,-47.760009765625,-138.71002197265625
-0.533203125,-1.1153564453125,0.2696533203125,21.61407470703125,-50.8575439453125,-141.18194580078125
-0.5419921875,-1.0721435546875,0.2552490234375,19.15740966796875,-53.64990234375,-142.4713134765625
-0.5396728515625,-1.0274658203125,0.23779296875,19.53887939453125,-56.2286376953125,-142.0440673828125
-0.5303955078125,-0.9947509765625,0.2154541015625,22.2015380859375,-58.7158203125,-139.801025390625
-0.521728515625,-0.9742431640625,0.1868896484375,25.56610107421875,-61.3250732421875,-136.08551025390625
-0.5186767578125,-0.9635009765625,0.1575927734375,27.82440185546875,-64.12506103515625,-131.27899169921875
-0.521728515625,-0.9591064453125,0.1337890625,27.62603759765625,-67.0623779296875,-125.4425048828125
-0.5301513671875,-0.9510498046875,0.1162109375,24.68109130859375,-70.13702392578125,-118.50738525390625
-0.5380859375,-0.9324951171875,0.1015625,19.7296142578125,-72.845458984375,-110.63385009765625
-0.5389404296875,-0.9036865234375,0.0809326171875,13.92364501953125,-74.62310791015625,-102.25677490234375
-0.5340576171875,-0.864990234375,0.05517578125,9.05609130859375,-75.37841796875,-93.902587890625
-0.5296630859375,-0.8128662109375,0.0325927734375,6.4544677734375,-75.43182373046875,-86.23504638671875
-0.530517578125,-0.7584228515625,0.01123046875,5.9661865234375,-75.09613037109375,-79.0863037109375
-0.5382080078125,-0.713134765625,-0.0123291015625,7.01904296875,-74.42474365234375,-71.8231201171875
-0.5528564453125,-0.674560546875,-0.0443115234375,9.07135009765625,-73.38714599609375,-64.14031982421875
-0.567626953125,-0.64453125,-0.072509765625,11.51275634765625,-71.87652587890625,-56.2286376953125
-0.5828857421875,-0.625244140625,-0.09033203125,13.67950439453125,-70.00732421875,-48.614501953125
-0.5972900390625,-0.6142578125,-0.0970458984375,14.86968994140625,-67.87109375,-41.7938232421875
-0.610595703125,-0.6058349609375,-0.10107421875,14.53399658203125,-65.65093994140625,-36.041259765625
-0.6226806640625,-0.5970458984375,-0.1083984375,12.47406005859375,-63.385009765625,-31.3262939453125
-0.6318359375,-0.5933837890625,-0.114013671875,9.429931640625,-61.24114990234375,-27.4505615234375
-0.6429443359375,-0.59619140625,-0.1077880859375,6.04248046875,-59.50164794921875,-24.3988037109375
-0.649169921875,-0.5980224609375,-0.0823974609375,2.2430419921875,-58.53271484375,-21.91925048828125
-0.65673828125,-0.6077880859375,-0.03759765625,-2.685546875,-57.67822265625,-19.90509033203125
-0.6614990234375,-0.615478515625,0.0152587890625,-8.3465576171875,-56.70166015625,-18.88275146484375
-0.65087890625,-0.6221923828125,0.0550537109375,-14.86968994140625,-55.45806884765625,-19.1192626953125
-0.628173828125,-0.637451171875,0.07080078125,-21.5911865234375,-53.71856689453125,-20.45440673828125
-0.5936279296875,-0.648681640625,0.085205078125,-27.27508544921875,-51.544189453125,-22.43804931640625
-0.5537109375,-0.667724609375,0.1038818359375,-31.88323974609375,-49.31640625,-24.2767333984375
-0.5032958984375,-0.681640625,0.1258544921875,-34.48486328125,-47.1038818359375,-25.56610107421875
-0.45263671875,-0.6973876953125,0.1607666015625,-35.3546142578125,-44.33441162109375,-26.00860595703125
-0.3974609375,-0.7138671875,0.1883544921875,-34.9273681640625,-41.4581298828125,-26.0162353515625
-0.3477783203125,-0.740478515625,0.209716796875,-32.77587890625,-38.787841796875,-25.81024169921875
-0.3094482421875,-0.76806640625,0.2005615234375,-28.7933349609375,-36.2548828125,-25.787353515625
-0.2542724609375,-0.7711181640625,0.22412109375,-23.0560302734375,-34.11102294921875,-25.65765380859375
-0.2178955078125,-0.795654296875,0.244873046875,-16.8304443359375,-34.1949462890625,-24.51324462890625
-0.182373046875,-0.8199462890625,0.2332763671875,-10.94818115234375,-34.21783447265625,-23.345947265625
-0.1650390625,-0.8338623046875,0.2373046875,-6.3018798828125,-34.4085693359375,-21.05712890625
-0.15869140625,-0.8387451171875,0.248291015625,-1.68609619140625,-35.94970703125,-17.69256591796875
-0.1568603515625,-0.8944091796875,0.3082275390625,0.96893310546875,-39.61181640625,-13.72528076171875
-0.142578125,-0.9287109375,0.410888671875,-0.51116943359375,-44.74639892578125,-10.6964111328125
-0.115478515625,-0.9620361328125,0.4747314453125,-5.706787109375,-50.4302978515625,-8.59832763671875
-0.0792236328125,-0.989501953125,0.4810791015625,-12.75634765625,-54.4586181640625,-7.7972412109375
-0.0511474609375,-0.9984130859375,0.4764404296875,-20.20263671875,-57.21282958984375,-7.40814208984375
-0.02490234375,-1.0045166015625,0.507080078125,-25.87127685546875,-60.4095458984375,-6.9122314453125
0.006103515625,-1.0208740234375,0.5537109375,-29.68597412109375,-65.29998779296875,-6.4544677734375
0.03759765625,-1.0438232421875,0.5692138671875,-32.76824951171875,-70.6787109375,-6.50787353515625
0.04736328125,-1.046875,0.5174560546875,-35.6903076171875,-74.89776611328125,-6.53839111328125
-0.00732421875,-1.0626220703125,0.31689453125,-34.87396240234375,-75.92010498046875,-6.2713623046875
-0.1021728515625,-1.0997314453125,0.0042724609375,-27.87017822265625,-71.3958740234375,-7.0037841796875
-0.222412109375,-1.1827392578125,-0.3345947265625,-18.91326904296875,-62.8204345703125,-8.47625732421875
-0.3846435546875,-1.2376708984375,-0.6373291015625,-12.16888427734375,-51.96380615234375,-10.7574462890625
-0.459716796875,-1.1915283203125,-0.625244140625,-10.76507568359375,-41.961669921875,-12.1002197265625
-0.45654296875,-1.111572265625,-0.288330078125,-13.3514404296875,-40.70281982421875,-10.1776123046875
-0.3399658203125,-1.0343017578125,0.108154296875,-14.6026611328125,-44.85321044921875,-7.293701171875
-0.19677734375,-0.9879150390625,0.3604736328125,-16.86859130859375,-46.7376708984375,-4.2266845703125
-0.10009765625,-1.0020751953125,0.37744140625,-19.439697265625,-48.370361328125,-2.3040771484375
-0.0478515625,-1.02880859375,0.272705078125,-22.31597900390625,-49.774169921875,-2.75421142578125
0.004150390625,-1.0330810546875,0.201904296875,-25.59661865234375,-51.71966552734375,-4.0740966796875
0.0631103515625,-1.008056640625,0.214599609375,-27.67181396484375,-54.8248291015625,-4.8675537109375
0.1171875,-0.9627685546875,0.238525390625,-26.71051025390625,-57.6934814453125,-4.45556640625
0.16064453125,-0.9246826171875,0.2386474609375,-22.60589599609375,-58.349609375,-2.899169921875
0.1834716796875,-0.9146728515625,0.238037109375,-16.19720458984375,-58.013916015625,-1.0986328125
0.1875,-0.942138671875,0.2679443359375,-9.42230224609375,-58.7005615234375,0.701904296875
0.171142578125,-1.0128173828125,0.29443359375,-4.20379638671875,-61.2030029296875,2.7313232421875
0.14501953125,-1.112060546875,0.3319091796875,-2.29644775390625,-65.0787353515625,5.0201416015625
0.1177978515625,-1.192138671875,0.388427734375,-5.2337646484375,-70.556640625,7.80487060546875
0.092041015625,-1.205810546875,0.442626953125,-11.077880859375,-76.9805908203125,10.85662841796875
0.0643310546875,-1.153564453125,0.4827880859375,-15.73944091796875,-82.5958251953125,13.00811767578125
0.0560302734375,-1.0797119140625,0.5020751953125,-17.49420166015625,-87.85247802734375,13.5040283203125
0.0513916015625,-0.97705078125,0.4857177734375,-18.1427001953125,-93.3990478515625,12.4664306640625
0.0697021484375,-0.896240234375,0.45263671875,-20.0042724609375,-99.52545166015625,11.14654541015625
0.06787109375,-0.8380126953125,0.357421875,-14.96124267578125,-104.94232177734375,8.3160400390625
0.1466064453125,-0.8057861328125,0.289306640625,-9.95635986328125,-108.3526611328125,6.134033203125
0.211669921875,-0.7852783203125,0.2376708984375,-5.8441162109375,-111.41204833984375,5.91278076171875
0.244873046875,-0.8428955078125,0.1986083984375,-4.180908203125,-113.51776123046875,7.49969482421875
0.2679443359375,-0.907470703125,0.1322021484375,-1.07574462890625,-114.87579345703125,9.60540771484375
0.3021240234375,-0.9708251953125,0.0543212890625,2.6397705078125,-115.447998046875,12.0849609375
0.3341064453125,-1.0284423828125,-0.000732421875,4.55474853515625,-115.50140380859375,13.671875
0.3577880859375,-1.0684814453125,-0.0416259765625,2.6702880859375,-115.42510986328125,14.0838623046875
0.376953125,-1.0743408203125,-0.071533203125,-3.02886962890625,-113.91448974609375,13.92364501953125
0.37890625,-1.0518798828125,-0.0775146484375,-10.52093505859375,-110.809326171875,14.0838623046875
0.3603515625,-1.0213623046875,-0.0679931640625,-17.63153076171875,-106.78863525390625,14.59503173828125
0.32177734375,-0.9801025390625,-0.042724609375,-21.84295654296875,-102.18048095703125,15.31982421875
0.2705078125,-0.9342041015625,-0.009033203125,-22.14813232421875,-97.22900390625,16.24298095703125
0.211181640625,-0.8876953125,0.0328369140625,-18.6614990234375,-92.27752685546875,17.303466796875
0.1468505859375,-0.855224609375,0.083740234375,-13.17596435546875,-87.95928955078125,18.47076416015625
0.0823974609375,-0.8460693359375,0.135009765625,-7.22503662109375,-84.6099853515625,18.9056396484375
0.022705078125,-0.859130859375,0.1851806640625,-1.8463134765625,-82.16094970703125,18.44024658203125
-0.021484375,-0.8953857421875,0.2393798828125,1.64794921875,-80.77239990234375,17.4560546875
-0.0506591796875,-0.948486328125,0.2862548828125,2.58636474609375,-80.74951171875,15.869140625
-0.0755615234375,-0.9893798828125,0.30859375,0.96893310546875,-81.87103271484375,13.03863525390625
-0.0838623046875,-1.0087890625,0.315185546875,-4.09698486328125,-83.25958251953125,9.65118408203125
-0.0791015625,-0.99755859375,0.29248046875,-10.04791259765625,-84.16748046875,5.8135986328125
-0.059814453125,-0.965576171875,0.2559814453125,-14.44244384765625,-84.16748046875,2.1820068359375
-0.026123046875,-0.92431640625,0.2017822265625,-15.1214599609375,-83.9080810546875,-0.29754638671875
0.009765625,-0.8951416015625,0.143310546875,-12.44354248046875,-82.71026611328125,-1.57928466796875
0.0396728515625,-0.887939453125,0.0880126953125,-7.4615478515625,-80.20782470703125,-2.03704833984375
0.0567626953125,-0.9068603515625,0.0477294921875,-2.4566650390625,-76.74407958984375,-1.9378662109375
0.060546875,-0.9356689453125,0.02685546875,1.04522705078125,-73.06671142578125,-1.60980224609375
0.05712890625,-0.9735107421875,0.0325927734375,2.288818359375,-69.4580078125,-1.5411376953125
0.04736328125,-1.005859375,0.0494384765625,2.6702880859375,-66.2078857421875,-2.25067138671875
0.032958984375,-1.012939453125,0.0654296875,3.3416748046875,-63.323974609375,-3.85284423828125
0.0157470703125,-1.014404296875,0.0823974609375,2.72369384765625,-61.18011474609375,-5.42449951171875
0.003662109375,-1.0108642578125,0.098876953125,1.2664794921875,-59.722900390625,-6.988525390625
-0.00439453125,-1.00048828125,0.1087646484375,0.08392333984375,-58.7158203125,-8.270263671875
-0.0086669921875,-0.98779296875,0.109375,-0.3509521484375,-57.76214599609375,-9.27734375
-0.0081787109375,-0.971923828125,0.1024169921875,-0.20599365234375,-56.549072265625,-10.2691650390625
-0.003662109375,-0.9581298828125,0.0943603515625,0.30517578125,-55.04608154296875,-11.3372802734375
0.00341796875,-0.9537353515625,0.0877685546875,0.90789794921875,-53.3905029296875,-12.55035400390625
0.0064697265625,-0.967529296875,0.0740966796875,1.25885009765625,-51.605224609375,-14.0380859375
0.0118408203125,-0.97705078125,0.0614013671875,0.70953369140625,-49.224853515625,-16.0064697265625
0.017578125,-0.9786376953125,0.04833984375,-0.3662109375,-46.79107666015625,-18.2037353515625
0.02197265625,-0.9755859375,0.032470703125,-1.31988525390625,-44.2047119140625,-20.45440673828125
0.028076171875,-0.962890625,0.0118408203125,-1.9989013671875,-41.3818359375,-22.674560546875
0.0263671875,-0.9588623046875,-0.0074462890625,-2.25830078125,-38.26904296875,-24.5208740234375
0.0399169921875,-0.9517822265625,-0.030029296875,-3.021240234375,-34.8052978515625,-26.45111083984375
0.047607421875,-0.95361328125,-0.040771484375,-3.65447998046875,-31.2042236328125,-28.2440185546875
0.052734375,-0.9576416015625,-0.041015625,-4.547119140625,-27.15301513671875,-30.181884765625
0.051513671875,-0.955078125,-0.029052734375,-5.86700439453125,-22.85003662109375,-32.53173828125
0.0391845703125,-0.949951171875,-0.0093994140625,-7.28607177734375,-18.7530517578125,-35.02655029296875
0.021728515625,-0.9498291015625,0.0130615234375,-8.6669921875,-15.08331298828125,-37.29248046875
0.0050048828125,-0.9521484375,0.03271484375,-9.92584228515625,-11.9171142578125,-39.07012939453125
-0.0076904296875,-0.958740234375,0.0523681640625,-10.94818115234375,-9.185791015625,-40.39764404296875
-0.0142822265625,-0.9720458984375,0.074462890625,-12.1307373046875,-6.81304931640625,-41.37420654296875
-0.014404296875,-0.9837646484375,0.097900390625,-13.87786865234375,-4.7454833984375,-42.42706298828125
-0.0111083984375,-0.99560546875,0.1158447265625,-16.2353515625,-2.8839111328125,-43.45703125
-0.005126953125,-1.009765625,0.12255859375,-19.21844482421875,-1.02996826171875,-44.36492919921875
0.0009765625,-1.0250244140625,0.1163330078125,-23.04840087890625,0.98419189453125,-44.98291015625
0.009033203125,-1.0289306640625,0.0985107421875,-27.435302734375,3.3721923828125,-45.166015625
0.018798828125,-1.025634765625,0.0745849609375,-31.7535400390625,6.32476806640625,-44.73876953125
0.0291748046875,-1.0224609375,0.053955078125,-35.59112548828125,10.009765625,-43.51806640625
0.0411376953125,-1.015380859375,0.044189453125,-38.44451904296875,14.24407958984375,-41.48101806640625
0.05029296875,-1.01123046875,0.0506591796875,-40.19927978515625,18.62335205078125,-38.47503662109375
0.0521240234375,-1.010498046875,0.0626220703125,-40.8782958984375,22.705078125,-34.50775146484375
0.047119140625,-1.0126953125,0.07373046875,-40.6036376953125,26.3519287109375,-29.91485595703125
0.0390625,-1.0201416015625,0.0819091796875,-40.0390625,29.6783447265625,-25.054931640625
0.0296630859375,-1.0262451171875,0.08251953125,-39.43634033203125,32.75299072265625,-20.27130126953125
0.0224609375,-1.02685546875,0.0809326171875,-38.5894775390625,35.85052490234375,-15.7012939453125
0.0185546875,-1.0262451171875,0.0814208984375,-37.0635986328125,39.031982421875,-11.3067626953125
0.01708984375,-1.0267333984375,0.0908203125,-34.72900390625,42.09136962890625,-7.0953369140625
0.0145263671875,-1.0299072265625,0.107421875,-31.5399169921875,44.77691650390625,-3.082275390625
0.01171875,-1.03466796875,0.1273193359375,-27.54974365234375,46.88262939453125,0.6103515625
0.01025390625,-1.0360107421875,0.14208984375,-22.66693115234375,48.309326171875,3.97491455078125
0.013671875,-1.029052734375,0.155517578125,-17.11273193359375,49.041748046875,6.99615478515625
0.0274658203125,-1.0145263671875,0.16162109375,-11.58905029296875,49.0875244140625,9.674072265625
0.0491943359375,-0.9959716796875,0.1605224609375,-6.9122314453125,48.6602783203125,11.94000244140625
0.0731201171875,-0.9716796875,0.1527099609375,-3.56292724609375,48.126220703125,13.75579833984375
0.0977783203125,-0.93994140625,0.1448974609375,-1.312255859375,47.5921630859375,15.52581787109375
0.11767578125,-0.9013671875,0.1383056640625,0.762939453125,46.91314697265625,17.7001953125
0.130859375,-0.864501953125,0.134033203125,3.62396240234375,46.0357666015625,20.538330078125
0.1341552734375,-0.8411865234375,0.1290283203125,7.25555419921875,44.80743408203125,23.9715576171875
0.1260986328125,-0.8388671875,0.122802734375,11.45172119140625,43.2281494140625,27.6641845703125
0.1082763671875,-0.8665771484375,0.1124267578125,15.6707763671875,41.3055419921875,30.99822998046875
0.0823974609375,-0.910888671875,0.0980224609375,19.500732421875,39.20745849609375,33.11920166015625
0.05712890625,-0.950439453125,0.086669921875,22.49908447265625,36.91864013671875,33.48541259765625
0.0323486328125,-0.9757080078125,0.079345703125,24.505615234375,34.27886962890625,32.29522705078125
0.010009765625,-0.9854736328125,0.074951171875,25.44403076171875,31.402587890625,30.03692626953125
-0.0137939453125,-0.982421875,0.0721435546875,25.03204345703125,28.34320068359375,27.16064453125
-0.041015625,-0.9625244140625,0.0732421875,23.4222412109375,25.3753662109375,24.0631103515625
-0.068115234375,-0.9285888671875,0.077392578125,21.11053466796875,22.5677490234375,21.1334228515625
-0.0902099609375,-0.8863525390625,0.0931396484375,18.8446044921875,19.93560791015625,18.402099609375
-0.1094970703125,-0.83740234375,0.117431640625,17.39501953125,17.17376708984375,15.9912109375
-0.1263427734375,-0.7733154296875,0.1456298828125,17.49420166015625,13.87786865234375,14.25933837890625
-0.1402587890625,-0.70166015625,0.171630859375,19.14215087890625,10.0250244140625,13.74053955078125
-0.151123046875,-0.6324462890625,0.205810546875,21.6217041015625,5.86700439453125,14.6942138671875
-0.16650390625,-0.5750732421875,0.244140625,23.76556396484375,1.21307373046875,17.09747314453125
-0.1854248046875,-0.5263671875,0.283447265625,24.59716796875,-4.31060791015625,20.92742919921875
-0.2088623046875,-0.498291015625,0.3170166015625,22.81951904296875,-10.58197021484375,26.0009765625
-0.235107421875,-0.4847412109375,0.342529296875,18.585205078125,-17.21954345703125,31.9366455078125
-0.2642822265625,-0.4771728515625,0.356689453125,12.4664306640625,-24.23858642578125,38.5894775390625
-0.292236328125,-0.4700927734375,0.3563232421875,4.913330078125,-31.44073486328125,45.96710205078125
-0.3177490234375,-0.460205078125,0.3466796875,-3.814697265625,-38.64288330078125,54.10003662109375
-0.34228515625,-0.447998046875,0.3304443359375,-13.18359375,-45.87554931640625,63.0950927734375
-0.3682861328125,-0.435791015625,0.309814453125,-22.7508544921875,-53.22265625,73.02093505859375
-0.3955078125,-0.4207763671875,0.2894287109375,-32.14263916015625,-60.546875,83.85467529296875
-0.42236328125,-0.40576171875,0.2674560546875,-41.0614013671875,-67.74139404296875,95.52764892578125
-0.450439453125,-0.39306640625,0.2442626953125,-49.3316650390625,-74.6612548828125,107.9254150390625
-0.4808349609375,-0.382080078125,0.220458984375,-56.57958984375,-81.3140869140625,120.75042724609375
-0.515869140625,-0.3717041015625,0.1959228515625,-62.73651123046875,-87.738037109375,133.7127685546875
-0.554443359375,-0.3662109375,0.176513671875,-67.86346435546875,-93.994140625,146.484375
-0.595458984375,-0.3631591796875,0.1466064453125,-71.6400146484375,-100.01373291015625,159.18731689453125
-0.641845703125,-0.3651123046875,0.1241455078125,-75.17242431640625,-105.95703125,171.4324951171875
-0.6883544921875,-0.3646240234375,0.105224609375,-77.7740478515625,-111.7706298828125,183.32672119140625
-0.74072265625,-0.364013671875,0.0882568359375,-79.742431640625,-117.2943115234375,195.10650634765625
-0.796875,-0.3740234375,0.074462890625,-81.5582275390625,-122.49755859375,206.76422119140625
-0.86767578125,-0.379638671875,0.064697265625,-82.94677734375,-127.25830078125,217.90313720703125
-0.968017578125,-0.392333984375,0.05419921875,-84.4573974609375,-132.28607177734375,229.24041748046875
-1.0831298828125,-0.4454345703125,0.0338134765625,-86.944580078125,-138.5650634765625,240.48614501953125
-1.20556640625,-0.5267333984375,-0.000244140625,-90.728759765625,-145.27130126953125,249.99237060546875
-1.323974609375,-0.6063232421875,-0.05029296875,-96.90093994140625,-151.63421630859375,249.99237060546875
-1.427001953125,-0.671875,-0.1043701171875,-106.9488525390625,-157.06634521484375,249.99237060546875
-1.50927734375,-0.72119140625,-0.1552734375,-120.2545166015625,-161.56005859375,249.99237060546875
-1.57568359375,-0.74072265625,-0.2000732421875,-134.6435546875,-165.313720703125,249.99237060546875
-1.633056640625,-0.7374267578125,-0.235107421875,-147.6593017578125,-168.44940185546875,249.99237060546875
-1.685546875,-0.7171630859375,-0.2647705078125,-157.11212158203125,-170.928955078125,249.99237060546875
-1.7274169921875,-0.6917724609375,-0.289306640625,-162.2161865234375,-173.14910888671875,249.99237060546875
-1.7713623046875,-0.6773681640625,-0.3145751953125,-163.2843017578125,-175.5218505859375,249.99237060546875
-1.8109130859375,-0.6734619140625,-0.3443603515625,-161.78131103515625,-177.54364013671875,245.0714111328125
-1.83642578125,-0.677001953125,-0.3782958984375,-159.5611572265625,-179.2144775390625,234.07745361328125
-1.8406982421875,-0.6893310546875,-0.4085693359375,-158.1268310546875,-180.419921875,222.3968505859375
-1.8182373046875,-0.7069091796875,-0.4332275390625,-158.88214111328125,-180.7403564453125,209.95330810546875
-1.7769775390625,-0.7060546875,-0.4510498046875,-161.97967529296875,-179.25262451171875,196.57135009765625
-1.7186279296875,-0.6871337890625,-0.462158203125,-166.412353515625,-175.72784423828125,181.51092529296875
-1.64990234375,-0.6495361328125,-0.470458984375,-170.2880859375,-170.2117919921875,165.1458740234375
-1.5889892578125,-0.60693359375,-0.4774169921875,-171.1578369140625,-163.58184814453125,148.2696533203125
-1.543212890625,-0.5706787109375,-0.4842529296875,-168.25103759765625,-156.21185302734375,131.90460205078125
-1.5157470703125,-0.543701171875,-0.4891357421875,-162.60528564453125,-148.4375,116.93572998046875
-1.4901123046875,-0.5245361328125,-0.49169921875,-155.76171875,-140.6402587890625,103.67584228515625
-1.4654541015625,-0.5145263671875,-0.4921875,-148.86474609375,-133.14056396484375,92.21649169921875
-1.4356689453125,-0.50927734375,-0.4918212890625,-142.7764892578125,-126.06048583984375,82.57293701171875
-1.3914794921875,-0.5072021484375,-0.48681640625,-138.1988525390625,-119.4915771484375,74.4476318359375
-1.3321533203125,-0.502685546875,-0.4752197265625,-135.47515869140625,-113.70849609375,67.63458251953125
-1.260009765625,-0.4991455078125,-0.4552001953125,-134.6282958984375,-108.6883544921875,61.82098388671875
-1.17822265625,-0.4974365234375,-0.42578125,-135.74981689453125,-104.339599609375,56.77032470703125
-1.0947265625,-0.4949951171875,-0.3896484375,-138.71002197265625,-100.74615478515625,52.337646484375
-1.0185546875,-0.49169921875,-0.3502197265625,-143.19610595703125,-97.80120849609375,48.42376708984375
-0.9549560546875,-0.490966796875,-0.3096923828125,-148.99444580078125,-95.43609619140625,45.02105712890625
-0.9036865234375,-0.494873046875,-0.2679443359375,-155.73883056640625,-93.658447265625,42.1295166015625
-0.85791015625,-0.497802734375,-0.2276611328125,-163.02490234375,-92.53692626953125,39.60418701171875
-0.811279296875,-0.4979248046875,-0.189208984375,-170.5322265625,-92.03338623046875,37.29248046875
-0.7637939453125,-0.4901123046875,-0.1568603515625,-177.57415771484375,-91.94183349609375,35.0341796875
-0.711669921875,-0.4759521484375,-0.131591796875,-183.380126953125,-92.0562744140625,33.02764892578125
-0.658203125,-0.4578857421875,-0.113037109375,-187.43896484375,-92.193603515625,31.39495849609375
-0.602294921875,-0.44384765625,-0.1002197265625,-189.5599365234375,-92.09442138671875,30.20477294921875
-0.545654296875,-0.4368896484375,-0.0880126953125,-189.788818359375,-91.48406982421875,29.47235107421875
-0.489013671875,-0.4383544921875,-0.07177734375,-188.19427490234375,-90.23284912109375,29.15191650390625
-0.4381103515625,-0.4447021484375,-0.04736328125,-184.783935546875,-88.5009765625,29.12139892578125
-0.39404296875,-0.45361328125,-0.017822265625,-179.45098876953125,-86.49444580078125,29.57916259765625
-0.3560791015625,-0.4622802734375,0.011474609375,-172.12677001953125,-84.51080322265625,30.57098388671875
-0.323486328125,-0.4716796875,0.0330810546875,-163.02490234375,-82.58819580078125,32.135009765625
-0.2952880859375,-0.4813232421875,0.0411376953125,-152.27508544921875,-80.62744140625,34.37042236328125
-0.272705078125,-0.4923095703125,0.039306640625,-140.0299072265625,-78.68194580078125,37.42218017578125
-0.2562255859375,-0.5068359375,0.0302734375,-126.3275146484375,-76.568603515625,41.25213623046875
-0.25,-0.5274658203125,0.02001953125,-111.41204833984375,-74.1424560546875,45.623779296875
-0.258544921875,-0.557373046875,0.011962890625,-95.7794189453125,-71.32720947265625,50.31585693359375
-0.2838134765625,-0.5908203125,0.0067138671875,-79.864501953125,-68.267822265625,55.0384521484375
-0.3228759765625,-0.623046875,0.0013427734375,-64.056396484375,-65.14739990234375,59.5550537109375
-0.369140625,-0.6484375,-0.0089111328125,-48.3856201171875,-61.82861328125,63.65203857421875
-0.4180908203125,-0.6707763671875,-0.023193359375,-32.6385498046875,-58.12835693359375,67.16156005859375
-0.465087890625,-0.6932373046875,-0.0384521484375,-16.693115234375,-53.79486083984375,69.95391845703125
-0.5087890625,-0.7130126953125,-0.0531005859375,-0.70953369140625,-48.77471923828125,71.7620849609375
-0.55078125,-0.7264404296875,-0.065673828125,15.31982421875,-42.999267578125,72.2808837890625
-0.5928955078125,-0.73046875,-0.076171875,31.83746337890625,-36.35406494140625,71.22802734375
-0.6470947265625,-0.7244873046875,-0.0814208984375,49.09515380859375,-29.083251953125,68.450927734375
-0.71435546875,-0.715576171875,-0.0760498046875,67.4896240234375,-21.27838134765625,64.17083740234375
-0.7850341796875,-0.70849609375,-0.0623779296875,87.0361328125,-13.36669921875,58.685302734375
-0.8450927734375,-0.7042236328125,-0.0443115234375,107.30743408203125,-5.7525634765625,52.13165283203125
-0.888671875,-0.701904296875,-0.030029296875,127.8839111328125,1.16729736328125,44.43359375
-0.918212890625,-0.701416015625,-0.0203857421875,147.9034423828125,7.14874267578125,35.5377197265625
-0.944580078125,-0.70556640625,-0.0135498046875,166.0614013671875,12.1612548828125,25.24566650390625
-0.9869384765625,-0.7208251953125,0.0015869140625,181.15997314453125,16.07513427734375,13.52691650390625
-1.0379638671875,-0.7369384765625,0.0198974609375,192.39044189453125,18.66912841796875,0.58746337890625
-1.078857421875,-0.746826171875,0.035888671875,199.68414306640625,19.56939697265625,-13.25225830078125
-1.104248046875,-0.7523193359375,0.041015625,203.52935791015625,18.798828125,-27.99224853515625
-1.119384765625,-0.7491455078125,0.035400390625,203.80401611328125,16.59393310546875,-43.6553955078125
-1.1302490234375,-0.7408447265625,0.01806640625,200.09613037109375,13.46588134765625,-59.9365234375
-1.1544189453125,-0.7288818359375,-0.0020751953125,192.25311279296875,9.857177734375,-76.86614990234375
-1.204345703125,-0.7059326171875,-0.0177001953125,181.03790283203125,6.23321533203125,-94.01702880859375
-1.2694091796875,-0.677001953125,-0.024658203125,168.37310791015625,2.90679931640625,-110.35919189453125
-1.3502197265625,-0.6517333984375,-0.0224609375,156.402587890625,-0.41961669921875,-125.3204345703125
-1.4417724609375,-0.6287841796875,-0.0238037109375,146.270751953125,-4.29534912109375,-138.58795166015625
-1.531982421875,-0.6085205078125,-0.041015625,137.8936767578125,-8.93402099609375,-149.8565673828125
-1.609375,-0.5909423828125,-0.0782470703125,130.50079345703125,-14.34326171875,-158.9202880859375
-1.670654296875,-0.5740966796875,-0.128173828125,123.25286865234375,-20.2178955078125,-165.76385498046875
-1.718505859375,-0.5560302734375,-0.1846923828125,115.814208984375,-26.02386474609375,-170.623779296875
-1.756103515625,-0.5367431640625,-0.238037109375,108.245849609375,-30.9906005859375,-173.97308349609375
-1.7740478515625,-0.5120849609375,-0.2745361328125,100.95977783203125,-34.56878662109375,-176.1474609375
-1.7618408203125,-0.48046875,-0.2896728515625,94.66552734375,-36.61346435546875,-177.398681640625
-1.72607421875,-0.449462890625,-0.283447265625,90.08026123046875,-37.20855712890625,-178.23028564453125
-1.6787109375,-0.422119140625,-0.266845703125,87.34130859375,-36.61346435546875,-179.34417724609375
-1.635009765625,-0.3848876953125,-0.2432861328125,86.31134033203125,-35.0341796875,-181.0760498046875
-1.5787353515625,-0.3544921875,-0.225830078125,87.10479736328125,-32.3333740234375,-183.7310791015625
-1.5118408203125,-0.3359375,-0.2130126953125,89.50042724609375,-30.08270263671875,-185.8367919921875
-1.4603271484375,-0.314208984375,-0.2039794921875,91.7816162109375,-28.3966064453125,-188.0340576171875
-1.3961181640625,-0.2899169921875,-0.19873046875,93.4600830078125,-26.03912353515625,-190.460205078125
-1.3330078125,-0.2666015625,-0.1934814453125,94.97833251953125,-23.8800048828125,-192.97027587890625
-1.2684326171875,-0.2496337890625,-0.1878662109375,96.5423583984375,-21.76666259765625,-195.3277587890625
-1.209228515625,-0.2371826171875,-0.1778564453125,98.09112548828125,-19.63043212890625,-197.22747802734375
-1.1568603515625,-0.2261962890625,-0.16552734375,99.2584228515625,-17.63153076171875,-198.5321044921875
-1.10546875,-0.2147216796875,-0.1502685546875,99.884033203125,-15.89202880859375,-198.99749755859375
-1.0543212890625,-0.2015380859375,-0.1339111328125,100.128173828125,-14.5263671875,-198.41766357421875
-1.00390625,-0.186279296875,-0.1187744140625,100.31890869140625,-13.60321044921875,-196.6400146484375
-0.952880859375,-0.1707763671875,-0.1055908203125,100.7080078125,-13.09967041015625,-193.55010986328125
-0.90283203125,-0.156005859375,-0.093994140625,101.318359375,-13.13018798828125,-189.1937255859375
-0.8546142578125,-0.1448974609375,-0.0845947265625,102.01263427734375,-13.73291015625,-183.58612060546875
-0.8101806640625,-0.13525390625,-0.0748291015625,102.59246826171875,-14.8773193359375,-176.81121826171875
-0.7711181640625,-0.1297607421875,-0.0660400390625,102.874755859375,-16.50238037109375,-168.99871826171875
-0.736572265625,-0.12646484375,-0.0587158203125,102.34832763671875,-18.51654052734375,-160.25543212890625
-0.699462890625,-0.123779296875,-0.0528564453125,100.57830810546875,-20.843505859375,-150.6500244140625
-0.659423828125,-0.1207275390625,-0.0478515625,97.4884033203125,-23.44512939453125,-140.2740478515625
-0.6177978515625,-0.1165771484375,-0.0443115234375,93.05572509765625,-26.2603759765625,-129.180908203125
-0.5770263671875,-0.1123046875,-0.0399169921875,87.310791015625,-29.16717529296875,-117.4774169921875
-0.5377197265625,-0.1090087890625,-0.0377197265625,80.36041259765625,-32.04345703125,-105.43060302734375
-0.50341796875,-0.1058349609375,-0.035888671875,72.31903076171875,-34.7900390625,-93.0023193359375
-0.476806640625,-0.1029052734375,-0.034423828125,63.3544921875,-37.25433349609375,-80.291748046875
-0.4573974609375,-0.0982666015625,-0.0338134765625,53.7109375,-39.40582275390625,-67.352294921875
-0.4439697265625,-0.0933837890625,-0.031982421875,43.76220703125,-41.09954833984375,-54.10003662109375
-0.4332275390625,-0.0892333984375,-0.0284423828125,33.7677001953125,-42.45758056640625,-40.44342041015625
-0.426025390625,-0.0877685546875,-0.0230712890625,23.9410400390625,-43.548583984375,-26.3824462890625
-0.4241943359375,-0.0931396484375,-0.017578125,14.25933837890625,-44.41070556640625,-11.98577880859375
-0.42822265625,-0.102294921875,-0.0135498046875,4.55474853515625,-45.14312744140625,2.655029296875
-0.4366455078125,-0.1129150390625,-0.0128173828125,-5.27191162109375,-45.78399658203125,17.38739013671875
-0.448486328125,-0.1231689453125,-0.012451171875,-15.167236328125,-46.31805419921875,32.16552734375
-0.4627685546875,-0.1329345703125,-0.0133056640625,-24.98626708984375,-46.76055908203125,46.97418212890625
-0.4788818359375,-0.142333984375,-0.0145263671875,-34.6527099609375,-47.20306396484375,61.65313720703125
-0.4979248046875,-0.15283203125,-0.0140380859375,-44.01397705078125,-47.607421875,76.10321044921875
-0.515869140625,-0.16259765625,-0.011962890625,-52.886962890625,-47.9888916015625,90.15655517578125
-0.53125,-0.1724853515625,-0.0086669921875,-61.1419677734375,-48.30169677734375,103.7445068359375
-0.5421142578125,-0.1812744140625,-0.002685546875,-68.65692138671875,-48.583984375,116.75262451171875
-0.552490234375,-0.1907958984375,0.004150390625,-75.0885009765625,-48.86627197265625,129.00543212890625
-0.5634765625,-0.202392578125,0.0142822265625,-80.37567138671875,-49.1943359375,140.37322998046875
-0.57763671875,-0.2138671875,0.0274658203125,-84.6405029296875,-49.652099609375,150.73394775390625
-0.594970703125,-0.224365234375,0.0421142578125,-87.63885498046875,-50.2777099609375,159.942626953125
-0.6134033203125,-0.2325439453125,0.0587158203125,-89.019775390625,-51.12457275390625,167.93060302734375
-0.6334228515625,-0.239990234375,0.0728759765625,-88.43994140625,-52.22320556640625,174.72076416015625
-0.6553955078125,-0.247314453125,0.08447265625,-85.8612060546875,-53.5430908203125,180.2520751953125
-0.6802978515625,-0.258056640625,0.09228515625,-81.74896240234375,-55.0537109375,184.41009521484375
-0.708740234375,-0.2647705078125,0.09521484375,-76.7974853515625,-56.70166015625,187.30926513671875
-0.7376708984375,-0.2708740234375,0.0916748046875,-71.3348388671875,-58.2733154296875,188.8580322265625
-0.78271484375,-0.286376953125,0.08544921875,-65.91796875,-60.60791015625,188.9495849609375
-0.841796875,-0.316162109375,0.07275390625,-61.21826171875,-63.20953369140625,187.40081787109375
-0.9261474609375,-0.369140625,0.0572509765625,-58.05206298828125,-66.2078857421875,184.56268310546875
-1.0361328125,-0.4371337890625,0.0399169921875,-57.82318115234375,-69.671630859375,180.74798583984375
-1.151611328125,-0.517822265625,0.0177001953125,-62.14141845703125,-73.81439208984375,175.63629150390625
-1.2603759765625,-0.5870361328125,-0.0146484375,-71.47979736328125,-79.00238037109375,169.830322265625
-1.360107421875,-0.646728515625,-0.0523681640625,-85.02197265625,-84.67864990234375,164.02435302734375
-1.44189453125,-0.6978759765625,-0.0845947265625,-102.0050048828125,-89.45465087890625,158.538818359375
-1.50390625,-0.73681640625,-0.10595703125,-121.28448486328125,-92.68951416015625,153.25927734375
-1.552734375,-0.759033203125,-0.11328125,-141.02935791015625,-94.42138671875,148.01788330078125
-1.5914306640625,-0.7608642578125,-0.10888671875,-159.01947021484375,-94.81048583984375,142.92144775390625
-1.6282958984375,-0.7452392578125,-0.0936279296875,-172.9736328125,-94.05517578125,138.4429931640625
-1.6572265625,-0.720458984375,-0.073974609375,-181.03790283203125,-92.53692626953125,135.0250244140625
-1.68017578125,-0.6990966796875,-0.051513671875,-182.4188232421875,-90.4083251953125,133.0718994140625
-1.686767578125,-0.687744140625,-0.0255126953125,-177.1240234375,-87.86773681640625,132.34710693359375
-1.6771240234375,-0.68896484375,-0.0035400390625,-166.07666015625,-85.2508544921875,132.4920654296875
-1.6522216796875,-0.701416015625,0.0125732421875,-150.9246826171875,-82.83233642578125,132.74383544921875
-1.6148681640625,-0.721435546875,0.01953125,-134.23919677734375,-80.8868408203125,132.08770751953125
-1.5684814453125,-0.7425537109375,0.0162353515625,-118.96514892578125,-79.28466796875,129.82940673828125
-1.5113525390625,-0.76220703125,0.0091552734375,-107.10906982421875,-77.90374755859375,125.72479248046875
-1.44287109375,-0.779296875,0.0064697265625,-99.12109375,-76.873779296875,119.98748779296875
-1.366943359375,-0.80078125,0.01611328125,-94.68841552734375,-76.31683349609375,113.10577392578125
-1.2830810546875,-0.82568359375,0.0377197265625,-92.85736083984375,-76.11083984375,105.743408203125
-1.192626953125,-0.8544921875,0.0679931640625,-92.49114990234375,-76.2786865234375,98.4039306640625
-1.0968017578125,-0.879638671875,0.1043701171875,-92.5140380859375,-76.934814453125,91.3543701171875
-0.9927978515625,-0.89892578125,0.138916015625,-91.92657470703125,-77.84271240234375,84.53369140625
-0.8785400390625,-0.9129638671875,0.1607666015625,-89.53094482421875,-79.0863037109375,77.9571533203125
-0.7589111328125,-0.9241943359375,0.1671142578125,-84.503173828125,-80.8868408203125,71.58660888671875
-0.6407470703125,-0.933349609375,0.1597900390625,-76.98822021484375,-82.9315185546875,65.185546875
