accel_x,accel_y,accel_z,gyro_x,gyro_y,gyro_z
-0.7899169921875,-0.5040283203125,-0.2763671875,4.7607421875,-9.34600830078125,-2.25067138671875
-0.795166015625,-0.4976806640625,-0.2734375,4.547119140625,-10.040283203125,-2.12860107421875
-0.7984619140625,-0.4969482421875,-0.272216796875,4.4708251953125,-10.16998291015625,-1.94549560546875
-0.7952880859375,-0.497314453125,-0.271728515625,5.01251220703125,-9.4451904296875,-1.70135498046875
-0.79150390625,-0.4981689453125,-0.2681884765625,5.18035888671875,-8.75091552734375,-1.15966796875
-0.78759765625,-0.4991455078125,-0.267822265625,4.547119140625,-8.41522216796875,-0.518798828125
-0.7850341796875,-0.505859375,-0.2703857421875,3.72314453125,-8.0108642578125,0.08392333984375
-0.7867431640625,-0.5167236328125,-0.270751953125,3.0059814453125,-7.51495361328125,0.5645751953125
-0.79052734375,-0.5247802734375,-0.272705078125,2.593994140625,-6.9427490234375,0.79345703125
-0.79541015625,-0.5301513671875,-0.27685546875,2.51007080078125,-6.46209716796875,0.64849853515625
-0.7994384765625,-0.5352783203125,-0.28271484375,2.8228759765625,-5.97381591796875,0.25177001953125
-0.80224609375,-0.5430908203125,-0.291259765625,3.57818603515625,-5.45501708984375,-0.09918212890625
-0.798828125,-0.54931640625,-0.3017578125,4.70733642578125,-4.67681884765625,-0.5340576171875
-0.7918701171875,-0.5540771484375,-0.3082275390625,6.011962890625,-3.7384033203125,-0.9765625
-0.778076171875,-0.5574951171875,-0.3092041015625,7.39288330078125,-2.66265869140625,-1.3885498046875
-0.77783203125,-0.5579833984375,-0.3048095703125,8.60595703125,-1.7242431640625,-1.800537109375
-0.7794189453125,-0.55419921875,-0.29541015625,9.14764404296875,-0.89263916015625,-2.1514892578125
-0.7803955078125,-0.5479736328125,-0.2823486328125,8.758544921875,-0.30517578125,-2.6092529296875
-0.7779541015625,-0.54541015625,-0.277099609375,7.4462890625,-0.885009765625,-3.1585693359375
-0.7796630859375,-0.550537109375,-0.27587890625,4.9896240234375,-2.7618408203125,-3.6773681640625
-0.776123046875,-0.5628662109375,-0.2772216796875,1.56402587890625,-5.157470703125,-4.05120849609375
-0.7723388671875,-0.578369140625,-0.2728271484375,-1.6937255859375,-6.7291259765625,-4.486083984375
-0.7691650390625,-0.5908203125,-0.267578125,-4.08935546875,-7.37762451171875,-5.13458251953125
-0.7667236328125,-0.5953369140625,-0.268798828125,-6.04248046875,-7.78961181640625,-6.06536865234375
-0.7633056640625,-0.5958251953125,-0.2752685546875,-7.843017578125,-8.09478759765625,-7.40814208984375
-0.7645263671875,-0.594482421875,-0.2750244140625,-9.490966796875,-8.23211669921875,-9.1094970703125
-0.762939453125,-0.5904541015625,-0.2684326171875,-10.71929931640625,-7.6141357421875,-10.99395751953125
-0.7587890625,-0.586181640625,-0.2659912109375,-11.16943359375,-6.82830810546875,-12.99285888671875
-0.7508544921875,-0.582763671875,-0.2657470703125,-11.28387451171875,-5.85174560546875,-14.95361328125
-0.7464599609375,-0.5838623046875,-0.2513427734375,-11.7950439453125,-4.47845458984375,-16.53289794921875
-0.745361328125,-0.5828857421875,-0.218017578125,-12.32147216796875,-2.5787353515625,-18.05877685546875
-0.743896484375,-0.562744140625,-0.19189453125,-12.176513671875,-1.15966796875,-19.9737548828125
-0.740234375,-0.529296875,-0.1959228515625,-12.65716552734375,-1.190185546875,-20.83587646484375
-0.7386474609375,-0.5020751953125,-0.206298828125,-14.4195556640625,-2.00653076171875,-19.38629150390625
-0.741943359375,-0.49267578125,-0.2030029296875,-17.02880859375,-3.50189208984375,-15.8233642578125
-0.750732421875,-0.5020751953125,-0.19970703125,-19.50836181640625,-5.16510009765625,-11.63482666015625
-0.7642822265625,-0.520263671875,-0.2059326171875,-20.93505859375,-7.46917724609375,-7.8887939453125
-0.780029296875,-0.5355224609375,-0.2054443359375,-20.81298828125,-10.4217529296875,-4.82177734375
-0.7950439453125,-0.540771484375,-0.1961669921875,-19.22607421875,-13.519287109375,-2.3956298828125
-0.8031005859375,-0.544677734375,-0.1932373046875,-16.11328125,-16.4031982421875,-0.02288818359375
-0.8150634765625,-0.549560546875,-0.1934814453125,-11.54327392578125,-18.9208984375,2.1514892578125
-0.8250732421875,-0.5511474609375,-0.191162109375,-6.32476806640625,-20.721435546875,3.9825439453125
-0.8282470703125,-0.5438232421875,-0.19091796875,-1.220703125,-22.20916748046875,5.51605224609375
-0.826416015625,-0.5323486328125,-0.1905517578125,3.11279296875,-23.33831787109375,7.19451904296875
-0.8201904296875,-0.5216064453125,-0.18310546875,6.43157958984375,-24.39117431640625,8.7738037109375
-0.8206787109375,-0.5125732421875,-0.1754150390625,9.01031494140625,-25.390625,10.162353515625
-0.8143310546875,-0.510498046875,-0.1737060546875,11.2152099609375,-26.1077880859375,11.74163818359375
-0.812255859375,-0.5089111328125,-0.17626953125,12.603759765625,-26.580810546875,12.68768310546875
-0.81689453125,-0.5048828125,-0.1783447265625,13.3514404296875,-25.93231201171875,13.1683349609375
-0.8197021484375,-0.5,-0.1884765625,13.66424560546875,-25.13885498046875,13.80157470703125
-0.81884765625,-0.4951171875,-0.200439453125,13.80157470703125,-24.29962158203125,14.30511474609375
-0.825927734375,-0.4996337890625,-0.2034912109375,13.580322265625,-23.5137939453125,14.77813720703125
-0.825439453125,-0.5089111328125,-0.1993408203125,13.49639892578125,-22.68218994140625,15.1214599609375
-0.8170166015625,-0.5201416015625,-0.193115234375,13.9617919921875,-22.4151611328125,15.19012451171875
-0.8109130859375,-0.5338134765625,-0.1776123046875,14.27459716796875,-21.8963623046875,14.74761962890625
-0.802734375,-0.5460205078125,-0.16064453125,14.15252685546875,-21.575927734375,14.07623291015625
-0.801513671875,-0.5531005859375,-0.13916015625,13.13018798828125,-21.2554931640625,13.031005859375
-0.8026123046875,-0.5484619140625,-0.117919921875,11.42120361328125,-20.88165283203125,11.7034912109375
-0.8077392578125,-0.5352783203125,-0.106689453125,9.490966796875,-21.026611328125,10.58197021484375
-0.8121337890625,-0.51953125,-0.1087646484375,7.476806640625,-21.728515625,9.8419189453125
-0.823486328125,-0.509033203125,-0.1224365234375,5.7525634765625,-22.72796630859375,9.5672607421875
-0.82177734375,-0.505859375,-0.127685546875,3.753662109375,-23.12469482421875,10.07080078125
-0.817626953125,-0.5118408203125,-0.12353515625,1.82342529296875,-23.93341064453125,10.58197021484375
-0.8160400390625,-0.528076171875,-0.1187744140625,0.06103515625,-25.08544921875,10.8642578125
-0.812744140625,-0.5521240234375,-0.108642578125,-1.74713134765625,-26.34429931640625,11.11602783203125
-0.8114013671875,-0.5733642578125,-0.0936279296875,-3.4027099609375,-27.16827392578125,10.74981689453125
-0.805419921875,-0.585205078125,-0.080322265625,-4.6234130859375,-27.39715576171875,10.0555419921875
-0.8060302734375,-0.5865478515625,-0.080810546875,-5.401611328125,-27.34375,8.7432861328125
-0.80908203125,-0.5811767578125,-0.091552734375,-6.195068359375,-27.496337890625,7.54547119140625
-0.814697265625,-0.573486328125,-0.099609375,-7.25555419921875,-27.35137939453125,6.20269775390625
-0.821044921875,-0.5672607421875,-0.1109619140625,-8.331298828125,-26.8707275390625,4.87518310546875
-0.8232421875,-0.5574951171875,-0.123291015625,-9.002685546875,-26.5655517578125,3.875732421875
-0.824951171875,-0.5428466796875,-0.1339111328125,-9.49859619140625,-26.06201171875,3.0059814453125
-0.829345703125,-0.529052734375,-0.1383056640625,-9.8114013671875,-25.0091552734375,2.3040771484375
-0.8330078125,-0.51611328125,-0.13232421875,-10.4522705078125,-24.1851806640625,1.74713134765625
-0.8382568359375,-0.4957275390625,-0.1396484375,-10.498046875,-23.0255126953125,1.41143798828125
-0.84375,-0.48095703125,-0.14892578125,-9.28497314453125,-21.93450927734375,2.25830078125
-0.843505859375,-0.491943359375,-0.1417236328125,-9.2620849609375,-20.6298828125,3.57818603515625
-0.8349609375,-0.5106201171875,-0.1138916015625,-9.307861328125,-18.83697509765625,4.06646728515625
-0.824951171875,-0.522705078125,-0.071533203125,-9.59014892578125,-18.1732177734375,4.6539306640625
-0.8258056640625,-0.535400390625,-0.0477294921875,-9.19342041015625,-19.70672607421875,5.523681640625
-0.8214111328125,-0.5509033203125,-0.0322265625,-7.13348388671875,-19.96612548828125,5.18035888671875
-0.8135986328125,-0.547607421875,-0.016845703125,-4.8370361328125,-20.97320556640625,4.29534912109375
-0.8145751953125,-0.537109375,0.0020751953125,-4.28009033203125,-22.857666015625,4.4708251953125
-0.81787109375,-0.5302734375,0.013427734375,-4.9591064453125,-25.604248046875,4.5013427734375
-0.8228759765625,-0.5184326171875,0.01171875,-5.1727294921875,-29.7393798828125,3.875732421875
-0.831298828125,-0.5128173828125,-0.005615234375,-4.45556640625,-33.10394287109375,3.83758544921875
-0.8323974609375,-0.5069580078125,-0.014892578125,-3.509521484375,-35.19439697265625,3.79180908203125
-0.8330078125,-0.504150390625,-0.0179443359375,-2.08282470703125,-36.56768798828125,3.83758544921875
-0.831787109375,-0.4959716796875,-0.012939453125,-0.152587890625,-36.85760498046875,3.9825439453125
-0.836181640625,-0.4854736328125,-0.0029296875,3.10516357421875,-36.88812255859375,4.5623779296875
-0.8455810546875,-0.477783203125,-0.0018310546875,6.744384765625,-36.88812255859375,5.4473876953125
-0.85107421875,-0.4716796875,-0.0035400390625,9.796142578125,-37.1246337890625,6.55364990234375
-0.8505859375,-0.47314453125,-0.00537109375,12.50457763671875,-36.94915771484375,7.8125
-0.8465576171875,-0.475341796875,0.00048828125,14.44244384765625,-36.78131103515625,9.429931640625
-0.845458984375,-0.4854736328125,0.001708984375,16.265869140625,-37.5823974609375,11.16943359375
-0.84423828125,-0.4949951171875,-0.0120849609375,19.02008056640625,-37.4603271484375,11.71112060546875
-0.8427734375,-0.5001220703125,-0.0291748046875,21.881103515625,-36.68212890625,11.97052001953125
-0.8402099609375,-0.5037841796875,-0.0306396484375,24.33013916015625,-35.5072021484375,12.33673095703125
-0.84326171875,-0.509033203125,-0.029296875,27.01568603515625,-34.70611572265625,12.542724609375
-0.8441162109375,-0.5040283203125,-0.0277099609375,29.88433837890625,-33.6151123046875,12.63427734375
-0.8538818359375,-0.50146484375,-0.0240478515625,32.5927734375,-32.79876708984375,13.00811767578125
-0.860107421875,-0.4998779296875,-0.0247802734375,35.89630126953125,-31.80694580078125,13.72528076171875
-0.8643798828125,-0.494140625,-0.02490234375,39.1998291015625,-30.63201904296875,14.62554931640625
-0.8782958984375,-0.5057373046875,-0.027099609375,42.4346923828125,-29.82330322265625,16.62445068359375
-0.8792724609375,-0.528076171875,-0.0244140625,45.76873779296875,-28.289794921875,19.20318603515625
-0.8846435546875,-0.5626220703125,-0.017333984375,46.73004150390625,-26.947021484375,20.74432373046875
-0.87109375,-0.5975341796875,-0.00439453125,47.515869140625,-23.8189697265625,21.30126953125
-0.8609619140625,-0.61669921875,0.0042724609375,49.285888671875,-20.904541015625,21.1944580078125
-0.8663330078125,-0.6248779296875,-0.0052490234375,50.95672607421875,-18.3868408203125,21.209716796875
-0.8800048828125,-0.616943359375,-0.0257568359375,50.84228515625,-16.91436767578125,21.0113525390625
-0.9007568359375,-0.612548828125,-0.0439453125,50.323486328125,-14.7247314453125,21.41571044921875
-0.9146728515625,-0.610595703125,-0.0516357421875,49.346923828125,-12.054443359375,21.85821533203125
-0.9332275390625,-0.6199951171875,-0.052490234375,48.77471923828125,-9.28497314453125,22.39990234375
-0.9368896484375,-0.6343994140625,-0.0440673828125,49.49951171875,-5.10406494140625,22.43804931640625
-0.9326171875,-0.6513671875,-0.03955078125,51.29241943359375,-0.5645751953125,22.13287353515625
-0.936767578125,-0.648193359375,-0.037841796875,52.65045166015625,5.13458251953125,22.48382568359375
-0.9422607421875,-0.6468505859375,-0.0572509765625,52.75726318359375,9.9945068359375,24.29962158203125
-0.9569091796875,-0.6614990234375,-0.0570068359375,50.5218505859375,16.30401611328125,26.45111083984375
-0.9783935546875,-0.697509765625,-0.051513671875,47.332763671875,21.209716796875,27.801513671875
-0.973388671875,-0.733154296875,-0.032470703125,43.83087158203125,24.28436279296875,27.77862548828125
-0.94775390625,-0.7677001953125,-0.0390625,40.0238037109375,24.46746826171875,29.5562744140625
-0.9693603515625,-0.8082275390625,-0.0494384765625,35.0494384765625,27.10723876953125,29.632568359375
-0.9560546875,-0.8055419921875,-0.1051025390625,30.43365478515625,28.48052978515625,26.16119384765625
-0.9490966796875,-0.7808837890625,-0.1473388671875,22.66693115234375,30.2581787109375,21.66748046875
-0.93359375,-0.7586669921875,-0.1527099609375,11.80267333984375,33.19549560546875,17.5018310546875
-0.9007568359375,-0.757568359375,-0.15771484375,0.3814697265625,36.18621826171875,13.0767822265625
-0.9014892578125,-0.7425537109375,-0.1844482421875,-10.09368896484375,38.52081298828125,8.2244873046875
-0.9180908203125,-0.704345703125,-0.2281494140625,-18.56231689453125,41.75567626953125,3.50189208984375
-0.931396484375,-0.6619873046875,-0.2567138671875,-26.40533447265625,47.55401611328125,-0.732421875
-0.9471435546875,-0.6278076171875,-0.2694091796875,-36.1785888671875,54.29840087890625,-4.44793701171875
-0.9608154296875,-0.6080322265625,-0.2705078125,-48.0194091796875,61.5234375,-7.68280029296875
-0.9595947265625,-0.5994873046875,-0.2452392578125,-61.3861083984375,68.450927734375,-11.2152099609375
-0.9525146484375,-0.5941162109375,-0.1856689453125,-75.23345947265625,74.8748779296875,-15.228271484375
-0.9559326171875,-0.5716552734375,-0.1180419921875,-84.32769775390625,82.8399658203125,-19.6380615234375
-0.97900390625,-0.5401611328125,-0.0657958984375,-85.30426025390625,95.062255859375,-24.8870849609375
-1.0098876953125,-0.5125732421875,-0.0169677734375,-80.810546875,109.21478271484375,-29.86907958984375
-1.05908203125,-0.5047607421875,0.0296630859375,-74.30267333984375,122.6806640625,-34.38568115234375
-1.1165771484375,-0.51220703125,0.0205078125,-65.7196044921875,134.6588134765625,-36.82708740234375
-1.153564453125,-0.5157470703125,-0.015625,-54.6417236328125,153.20587158203125,-40.36712646484375
-1.1884765625,-0.4815673828125,-0.0325927734375,-40.33660888671875,173.01177978515625,-45.43304443359375
-1.2410888671875,-0.4293212890625,-0.091552734375,-22.98736572265625,189.41497802734375,-50.14801025390625
-1.2275390625,-0.382568359375,-0.1141357421875,-9.246826171875,194.9920654296875,-52.24609375
-1.158203125,-0.378173828125,-0.13720703125,2.34222412109375,190.673828125,-51.9561767578125
-1.1351318359375,-0.388916015625,-0.181396484375,11.92474365234375,185.05096435546875,-53.93218994140625
-1.0963134765625,-0.37158203125,-0.18701171875,10.78033447265625,175.65155029296875,-56.671142578125
-1.0068359375,-0.405517578125,-0.1611328125,-2.7923583984375,158.0047607421875,-58.69293212890625
-0.90234375,-0.4862060546875,-0.126708984375,-16.082763671875,136.94000244140625,-60.61553955078125
-0.8232421875,-0.5584716796875,-0.1549072265625,-21.99554443359375,115.76080322265625,-65.0787353515625
-0.777587890625,-0.5767822265625,-0.181396484375,-27.41241455078125,100.04425048828125,-70.32012939453125
-0.7445068359375,-0.576416015625,-0.183349609375,-32.96661376953125,88.95111083984375,-74.15008544921875
-0.719970703125,-0.5836181640625,-0.1822509765625,-39.886474609375,78.81927490234375,-77.423095703125
-0.7098388671875,-0.58447265625,-0.169189453125,-49.652099609375,69.77081298828125,-81.085205078125
-0.718017578125,-0.5810546875,-0.1519775390625,-60.18829345703125,61.53106689453125,-84.57183837890625
-0.726806640625,-0.559814453125,-0.14208984375,-70.4803466796875,52.81829833984375,-87.9669189453125
-0.739013671875,-0.5257568359375,-0.13916015625,-79.55169677734375,45.34149169921875,-91.1407470703125
-0.756591796875,-0.477783203125,-0.134765625,-87.05902099609375,39.154052734375,-94.4366455078125
-0.7603759765625,-0.41943359375,-0.1319580078125,-92.041015625,32.98187255859375,-97.381591796875
-0.766357421875,-0.3631591796875,-0.1248779296875,-94.82574462890625,28.01513671875,-98.59466552734375
-0.7574462890625,-0.317626953125,-0.1219482421875,-95.49713134765625,22.49908447265625,-98.54888916015625
-0.74169921875,-0.27978515625,-0.114990234375,-94.49005126953125,17.181396484375,-97.72491455078125
-0.7366943359375,-0.2520751953125,-0.1104736328125,-91.94183349609375,13.96942138671875,-94.35272216796875
-0.7149658203125,-0.2359619140625,-0.09814453125,-87.7227783203125,11.52801513671875,-88.5772705078125
-0.6973876953125,-0.2086181640625,-0.095703125,-80.84869384765625,7.87353515625,-82.60345458984375
-0.664794921875,-0.179931640625,-0.0953369140625,-72.6318359375,2.58636474609375,-76.3397216796875
-0.6279296875,-0.1502685546875,-0.099365234375,-63.385009765625,-3.27301025390625,-69.69451904296875
-0.5885009765625,-0.1361083984375,-0.107421875,-53.4515380859375,-9.36126708984375,-61.46240234375
-0.5452880859375,-0.132568359375,-0.107666015625,-42.388916015625,-15.7470703125,-52.2918701171875
-0.505615234375,-0.12890625,-0.1119384765625,-30.0140380859375,-22.2930908203125,-42.7093505859375
-0.467529296875,-0.13134765625,-0.1197509765625,-16.937255859375,-28.9459228515625,-33.0810546875
-0.433837890625,-0.135009765625,-0.1380615234375,-4.00543212890625,-35.4461669921875,-22.74322509765625
-0.4156494140625,-0.1446533203125,-0.170166015625,7.54547119140625,-41.168212890625,-11.43646240234375
-0.4105224609375,-0.16455078125,-0.2030029296875,16.50238037109375,-45.806884765625,0.74005126953125
-0.4283447265625,-0.1910400390625,-0.23681640625,23.90289306640625,-50.0030517578125,12.67242431640625
-0.458984375,-0.236328125,-0.299072265625,31.53228759765625,-54.92401123046875,23.70452880859375
-0.5054931640625,-0.3314208984375,-0.4090576171875,37.26959228515625,-61.03515625,31.83746337890625
-0.54443359375,-0.482421875,-0.557861328125,38.61236572265625,-68.70269775390625,36.24725341796875
-0.592041015625,-0.6849365234375,-0.8004150390625,33.18023681640625,-76.68304443359375,35.6597900390625
-0.6583251953125,-0.9312744140625,-1.0372314453125,16.04461669921875,-78.0792236328125,30.60150146484375
-0.7200927734375,-1.109130859375,-1.19775390625,-4.608154296875,-70.2972412109375,20.33233642578125
-0.7406005859375,-1.13330078125,-1.2734375,-17.5018310546875,-55.3436279296875,5.95855712890625
-0.7239990234375,-1.0771484375,-1.25732421875,-24.31488037109375,-38.35296630859375,-8.53729248046875
-0.6878662109375,-1.005615234375,-1.1759033203125,-27.252197265625,-22.28546142578125,-20.81298828125
-0.645263671875,-0.9395751953125,-1.062744140625,-27.4658203125,-10.18524169921875,-29.8614501953125
-0.6046142578125,-0.862548828125,-0.96337890625,-26.91650390625,-3.30352783203125,-35.89630126953125
-0.5751953125,-0.7705078125,-0.896728515625,-29.3426513671875,-0.54931640625,-39.13116455078125
-0.5576171875,-0.7000732421875,-0.8525390625,-36.01837158203125,-0.37384033203125,-40.10009765625
-0.5496826171875,-0.6826171875,-0.7900390625,-44.2657470703125,-1.9378662109375,-40.0543212890625
-0.552734375,-0.7130126953125,-0.72607421875,-50.1708984375,-4.1961669921875,-39.9169921875
-0.610595703125,-0.7191162109375,-0.7164306640625,-53.924560546875,-6.50787353515625,-40.0543212890625
-0.7225341796875,-0.6600341796875,-0.70556640625,-56.28204345703125,-7.78961181640625,-38.39874267578125
-0.91064453125,-0.5904541015625,-0.6458740234375,-51.8341064453125,-6.66046142578125,-33.0047607421875
-1.1903076171875,-0.5372314453125,-0.5819091796875,-37.506103515625,-2.51007080078125,-23.4222412109375
-1.45751953125,-0.503173828125,-0.56787109375,-22.34649658203125,4.47845458984375,-12.88604736328125
-1.493896484375,-0.4422607421875,-0.565185546875,-13.6566162109375,16.9525146484375,-7.60650634765625
-1.2733154296875,-0.3468017578125,-0.36572265625,-3.65447998046875,29.09088134765625,-10.16998291015625
-1.0155029296875,-0.11328125,-0.1512451171875,18.34869384765625,32.40966796875,-12.8021240234375
-0.8759765625,0.25439453125,-0.15576171875,38.330078125,21.96502685546875,-3.4942626953125
-0.7762451171875,0.46044921875,-0.2137451171875,33.7066650390625,6.3323974609375,17.6849365234375
-0.654541015625,0.1932373046875,-0.080810546875,13.5040283203125,-12.65716552734375,41.8853759765625
-0.549072265625,-0.43505859375,0.1771240234375,18.30291748046875,-25.55084228515625,59.08203125
-0.56591796875,-0.888427734375,0.3541259765625,55.023193359375,-15.80047607421875,64.5751953125
-0.6746826171875,-1.0723876953125,0.40966796875,92.041015625,5.7525634765625,60.5926513671875
-0.7734375,-1.08349609375,0.3394775390625,110.83984375,15.52581787109375,47.79052734375
-0.8076171875,-1.0323486328125,0.1292724609375,111.236572265625,5.31005859375,32.43255615234375
-0.7908935546875,-0.93212890625,-0.0389404296875,97.35870361328125,-12.51220703125,20.22552490234375
-0.769775390625,-0.7598876953125,-0.0948486328125,79.376220703125,-26.20697021484375,14.24407958984375
-0.7906494140625,-0.537353515625,-0.0965576171875,67.169189453125,-33.538818359375,14.83917236328125
-0.8382568359375,-0.35302734375,-0.0838623046875,62.98828125,-35.2325439453125,21.3470458984375
-0.8818359375,-0.254150390625,-0.0594482421875,63.9801025390625,-34.87396240234375,31.77642822265625
-0.9114990234375,-0.234130859375,-0.0579833984375,71.52557373046875,-32.78350830078125,43.89190673828125
-0.912353515625,-0.2552490234375,-0.06201171875,82.45086669921875,-28.9764404296875,55.62591552734375
-0.9093017578125,-0.293701171875,-0.0684814453125,91.86553955078125,-26.5045166015625,64.55230712890625
-0.9034423828125,-0.3353271484375,-0.06884765625,96.710205078125,-24.59716796875,70.50323486328125
-0.898193359375,-0.3916015625,-0.050537109375,98.57940673828125,-24.23095703125,74.08905029296875
-0.8914794921875,-0.4453125,-0.0377197265625,100.5706787109375,-25.9246826171875,76.13372802734375
-0.8729248046875,-0.5130615234375,-0.04541015625,101.5777587890625,-28.13720703125,75.01983642578125
-0.841552734375,-0.5828857421875,-0.04931640625,99.64752197265625,-30.70831298828125,71.624755859375
-0.8082275390625,-0.6414794921875,-0.0513916015625,94.81048583984375,-34.149169921875,66.44439697265625
-0.7816162109375,-0.65087890625,-0.061279296875,85.6170654296875,-39.05487060546875,58.4564208984375
-0.76953125,-0.630615234375,-0.06787109375,74.27978515625,-42.93060302734375,50.7049560546875
-0.7740478515625,-0.61962890625,-0.05712890625,60.46295166015625,-48.04229736328125,42.83905029296875
-0.770751953125,-0.5968017578125,-0.0540771484375,48.614501953125,-53.5430908203125,36.85760498046875
-0.783447265625,-0.568359375,-0.0689697265625,41.8243408203125,-56.96868896484375,32.70721435546875
-0.79833984375,-0.5201416015625,-0.06884765625,38.87939453125,-57.92236328125,29.99114990234375
-0.8275146484375,-0.4871826171875,-0.06689453125,39.63470458984375,-54.77142333984375,29.0069580078125
-0.8443603515625,-0.4619140625,-0.05615234375,43.58673095703125,-49.8504638671875,29.96063232421875
-0.8597412109375,-0.4600830078125,-0.0963134765625,46.81396484375,-46.91314697265625,34.210205078125
-0.8853759765625,-0.4725341796875,-0.1326904296875,48.59161376953125,-42.999267578125,37.2314453125
-0.908935546875,-0.4727783203125,-0.15185546875,49.61395263671875,-39.7491455078125,37.078857421875
-0.9173583984375,-0.4921875,-0.15625,48.04229736328125,-39.28375244140625,38.15460205078125
-0.9095458984375,-0.540771484375,-0.1297607421875,46.07391357421875,-37.017822265625,39.83306884765625
-0.89306640625,-0.582763671875,-0.0899658203125,47.9736328125,-33.9813232421875,39.89410400390625
-0.8702392578125,-0.6024169921875,-0.0589599609375,54.26788330078125,-31.463623046875,39.764404296875
-0.8465576171875,-0.6016845703125,-0.0362548828125,61.5997314453125,-29.60205078125,39.1693115234375
-0.8330078125,-0.583740234375,-0.0196533203125,67.20733642578125,-29.50286865234375,38.87176513671875
-0.83056640625,-0.567138671875,-0.0194091796875,71.17462158203125,-30.8685302734375,40.00091552734375
-0.8173828125,-0.5621337890625,-0.0296630859375,73.8372802734375,-33.38623046875,41.40472412109375
-0.8076171875,-0.5667724609375,-0.064208984375,75.5767822265625,-37.86468505859375,42.03033447265625
-0.8046875,-0.5821533203125,-0.1246337890625,77.5909423828125,-42.7703857421875,42.25921630859375
-0.7835693359375,-0.595458984375,-0.19140625,81.00128173828125,-45.501708984375,42.28973388671875
-0.76123046875,-0.6175537109375,-0.2291259765625,83.33587646484375,-45.81451416015625,42.83905029296875
-0.7379150390625,-0.663818359375,-0.2283935546875,82.855224609375,-43.46466064453125,43.69354248046875
-0.7261962890625,-0.7430419921875,-0.1885986328125,79.9407958984375,-38.3453369140625,44.2047119140625
-0.7218017578125,-0.80908203125,-0.127685546875,74.82147216796875,-32.562255859375,42.38128662109375
-0.7314453125,-0.83984375,-0.0946044921875,68.16864013671875,-29.754638671875,38.36822509765625
-0.7518310546875,-0.8333740234375,-0.1138916015625,61.48529052734375,-29.57916259765625,33.0657958984375
-0.78515625,-0.807373046875,-0.143798828125,54.74090576171875,-29.144287109375,27.8167724609375
-0.81494140625,-0.7742919921875,-0.1629638671875,47.76763916015625,-27.74810791015625,23.18572998046875
-0.84228515625,-0.7506103515625,-0.177001953125,42.88482666015625,-24.84893798828125,20.05767822265625
-0.8621826171875,-0.757568359375,-0.18994140625,40.88592529296875,-19.64569091796875,18.0206298828125
-0.8763427734375,-0.780029296875,-0.1806640625,40.44342041015625,-12.27569580078125,17.57049560546875
-0.8883056640625,-0.859375,-0.1708984375,38.96331787109375,-3.4027099609375,17.55523681640625
-0.893310546875,-0.9246826171875,-0.1856689453125,37.75787353515625,4.98199462890625,16.65496826171875
-0.914794921875,-0.952880859375,-0.2281494140625,38.23089599609375,14.678955078125,11.871337890625
-0.94775390625,-0.880615234375,-0.2520751953125,32.3028564453125,22.0489501953125,2.86102294921875
-0.9979248046875,-0.772705078125,-0.2607421875,16.88385009765625,25.970458984375,-6.3018798828125
-1.00244140625,-0.7235107421875,-0.2918701171875,0.48065185546875,26.66473388671875,-13.57269287109375
-0.993896484375,-0.68359375,-0.3060302734375,-14.16778564453125,30.02166748046875,-19.40155029296875
-0.986328125,-0.6466064453125,-0.3072509765625,-28.11431884765625,38.177490234375,-24.261474609375
-0.996337890625,-0.62255859375,-0.2879638671875,-43.6248779296875,48.15673828125,-28.6712646484375
-1.03076171875,-0.5926513671875,-0.245361328125,-61.82861328125,58.44879150390625,-32.58514404296875
-1.0833740234375,-0.5662841796875,-0.1622314453125,-79.559326171875,71.441650390625,-35.858154296875
-1.151611328125,-0.5211181640625,-0.0306396484375,-93.93310546875,88.56201171875,-39.1845703125
-1.2340087890625,-0.4586181640625,0.117431640625,-106.7352294921875,107.36846923828125,-42.71697998046875
-1.325439453125,-0.4052734375,0.2235107421875,-114.56298828125,125.38909912109375,-45.31097412109375
-1.3792724609375,-0.3837890625,0.22021484375,-109.32159423828125,139.129638671875,-45.3643798828125
-1.4136962890625,-0.39111328125,0.0948486328125,-89.5538330078125,152.45819091796875,-43.70880126953125
-1.4415283203125,-0.40185546875,-0.0960693359375,-59.79156494140625,171.661376953125,-41.34368896484375
-1.4451904296875,-0.4010009765625,-0.2552490234375,-33.27178955078125,197.39532470703125,-39.4439697265625
-1.443359375,-0.3662109375,-0.2938232421875,-17.34161376953125,226.9439697265625,-41.08428955078125
-1.43115234375,-0.3524169921875,-0.2388916015625,-8.09478759765625,244.2474365234375,-41.6717529296875
-1.3507080078125,-0.345947265625,-0.2022705078125,-3.91387939453125,237.9913330078125,-40.1458740234375
-1.23095703125,-0.376708984375,-0.164306640625,-4.67681884765625,221.91619873046875,-40.4205322265625
-1.1043701171875,-0.47216796875,-0.12646484375,-23.651123046875,197.7691650390625,-43.26629638671875
-0.98876953125,-0.6072998046875,-0.106689453125,-46.5087890625,168.39599609375,-48.16436767578125
-0.9034423828125,-0.650390625,-0.0992431640625,-51.971435546875,151.61895751953125,-56.72454833984375
-0.8623046875,-0.6513671875,-0.0938720703125,-51.422119140625,138.73291015625,-66.1163330078125
-0.812744140625,-0.618896484375,-0.0831298828125,-56.09893798828125,124.32861328125,-73.73809814453125
-0.7557373046875,-0.5927734375,-0.0758056640625,-61.25640869140625,111.04583740234375,-79.61273193359375
-0.717041015625,-0.57568359375,-0.0723876953125,-66.6961669921875,100.80718994140625,-86.54022216796875
-0.6602783203125,-0.5572509765625,-0.09716796875,-75.0274658203125,89.98870849609375,-93.6279296875
-0.6358642578125,-0.532958984375,-0.1065673828125,-87.310791015625,80.2764892578125,-98.7701416015625
-0.630126953125,-0.5029296875,-0.08935546875,-98.052978515625,72.71575927734375,-101.41754150390625
-0.6273193359375,-0.4478759765625,-0.0977783203125,-105.712890625,63.6444091796875,-102.66876220703125
-0.6201171875,-0.385498046875,-0.0928955078125,-112.05291748046875,53.680419921875,-102.51617431640625
-0.614990234375,-0.330322265625,-0.0738525390625,-117.2027587890625,45.71533203125,-99.18212890625
-0.59765625,-0.2752685546875,-0.0433349609375,-120.1324462890625,38.665771484375,-93.32275390625
-0.58056640625,-0.2176513671875,-0.0113525390625,-118.75152587890625,31.7535400390625,-86.44866943359375
-0.5579833984375,-0.165771484375,0.014892578125,-112.63275146484375,25.59661865234375,-78.10211181640625
-0.53173828125,-0.1278076171875,0.0369873046875,-102.53143310546875,19.58465576171875,-68.54248046875
-0.4959716796875,-0.1011962890625,0.05126953125,-88.61541748046875,13.20648193359375,-58.4716796875
-0.46142578125,-0.0885009765625,0.05810546875,-71.3653564453125,5.39398193359375,-48.76708984375
-0.429443359375,-0.090087890625,0.054931640625,-52.11639404296875,-3.662109375,-39.60418701171875
-0.4012451171875,-0.106201171875,0.0438232421875,-31.88323974609375,-13.4735107421875,-30.81512451171875
-0.379150390625,-0.132568359375,0.0277099609375,-11.3983154296875,-23.7579345703125,-22.2625732421875
-0.3607177734375,-0.156005859375,-0.0029296875,9.429931640625,-34.44671630859375,-14.97650146484375
-0.34423828125,-0.1644287109375,-0.0465087890625,29.80804443359375,-45.14312744140625,-8.331298828125
-0.3309326171875,-0.156005859375,-0.11474609375,49.49188232421875,-55.908203125,-1.495361328125
-0.3681640625,-0.1395263671875,-0.159912109375,67.4285888671875,-65.9332275390625,5.9661865234375
-0.42041015625,-0.172607421875,-0.242919921875,86.41815185546875,-78.78875732421875,15.19012451171875
-0.4696044921875,-0.2996826171875,-0.3720703125,102.0050048828125,-92.8802490234375,23.35357666015625
-0.5533447265625,-0.5096435546875,-0.58203125,109.80224609375,-104.94232177734375,28.75518798828125
-0.761962890625,-0.80029296875,-0.9595947265625,102.9815673828125,-105.712890625,29.60205078125
-0.955322265625,-1.1085205078125,-1.4544677734375,74.28741455078125,-94.329833984375,26.55792236328125
-1.005126953125,-1.2813720703125,-1.730224609375,28.28216552734375,-78.55987548828125,13.77105712890625
-0.917236328125,-1.25390625,-1.7186279296875,-2.46429443359375,-56.2286376953125,-6.134033203125
-0.77001953125,-1.1689453125,-1.5830078125,-14.77813720703125,-34.56878662109375,-24.96337890625
-0.61376953125,-1.0618896484375,-1.346923828125,-22.308349609375,-14.007568359375,-38.39111328125
-0.5067138671875,-0.89892578125,-1.0992431640625,-23.13232421875,4.09698486328125,-46.48590087890625
-0.440185546875,-0.7056884765625,-0.8941650390625,-18.9208984375,15.6402587890625,-49.56817626953125
-0.3876953125,-0.5582275390625,-0.7496337890625,-15.84625244140625,19.32525634765625,-47.53875732421875
-0.38330078125,-0.508056640625,-0.6612548828125,-14.3890380859375,18.2952880859375,-41.4886474609375
-0.46142578125,-0.5135498046875,-0.6595458984375,-14.53399658203125,17.18902587890625,-33.3404541015625
-0.6177978515625,-0.4693603515625,-0.6663818359375,-20.62225341796875,19.76776123046875,-24.42169189453125
-0.84619140625,-0.4117431640625,-0.50390625,-24.9176025390625,21.04949951171875,-13.1072998046875
-1.1640625,-0.363525390625,-0.287841796875,-10.93292236328125,19.9432373046875,-1.21307373046875
-1.587158203125,-0.2825927734375,-0.4166259765625,15.67840576171875,18.3258056640625,9.7808837890625
-1.8663330078125,-0.2734375,-0.97607421875,20.6756591796875,16.39556884765625,21.93450927734375
-1.6732177734375,-0.552490234375,-0.7889404296875,-1.56402587890625,30.94482421875,30.46417236328125
-1.308837890625,-0.57763671875,-0.3052978515625,10.36834716796875,39.05487060546875,26.95465087890625
-1.0604248046875,-0.2711181640625,-0.0916748046875,44.21234130859375,29.35028076171875,24.40643310546875
-0.91943359375,0.1055908203125,-0.0006103515625,57.42645263671875,16.082763671875,26.93939208984375
-0.7740478515625,0.056396484375,0.21337890625,45.60089111328125,-3.4637451171875,41.03851318359375
-0.614501953125,-0.4149169921875,0.537353515625,48.583984375,-12.51983642578125,62.73651123046875
-0.5870361328125,-0.7340087890625,0.6580810546875,85.4339599609375,7.3089599609375,73.4100341796875
-0.7044677734375,-0.9154052734375,0.581787109375,123.4283447265625,28.80096435546875,70.86944580078125
-0.8515625,-1.0704345703125,0.3760986328125,147.19390869140625,28.90777587890625,60.638427734375
-0.88916015625,-1.1558837890625,0.1239013671875,158.0047607421875,14.57977294921875,47.11151123046875
-0.8729248046875,-1.095703125,-0.105224609375,156.41021728515625,-0.17547607421875,31.92901611328125
-0.8687744140625,-0.858154296875,-0.2186279296875,141.29638671875,-6.88934326171875,20.1263427734375
-0.8857421875,-0.5400390625,-0.21826171875,120.10955810546875,-10.3912353515625,16.80755615234375
-0.9161376953125,-0.2755126953125,-0.2008056640625,105.07965087890625,-10.41412353515625,22.186279296875
-0.945068359375,-0.1353759765625,-0.1865234375,98.99139404296875,-9.46807861328125,34.24835205078125
-0.9366455078125,-0.138671875,-0.151611328125,102.14996337890625,-10.6048583984375,49.56817626953125
-0.912109375,-0.2352294921875,-0.11865234375,112.2894287109375,-13.35906982421875,63.08746337890625
-0.868896484375,-0.36865234375,-0.10205078125,124.42779541015625,-15.0146484375,72.7081298828125
-0.826416015625,-0.46484375,-0.103759765625,132.42340087890625,-14.7857666015625,75.72174072265625
-0.8040771484375,-0.5262451171875,-0.0806884765625,134.30023193359375,-12.58087158203125,73.30322265625
-0.786865234375,-0.5595703125,-0.0657958984375,130.63812255859375,-11.5203857421875,68.38226318359375
-0.7662353515625,-0.5654296875,-0.054931640625,123.31390380859375,-11.46697998046875,62.27874755859375
-0.746826171875,-0.5587158203125,-0.0433349609375,116.12701416015625,-12.26806640625,57.7239990234375
-0.7454833984375,-0.5537109375,-0.0125732421875,108.43658447265625,-14.1754150390625,52.84881591796875
-0.7410888671875,-0.566650390625,-0.0048828125,103.82843017578125,-17.6849365234375,49.3621826171875
-0.741455078125,-0.595703125,-0.0238037109375,100.63934326171875,-20.99609375,47.91259765625
-0.7413330078125,-0.6416015625,-0.0340576171875,92.3919677734375,-25.67291259765625,46.13494873046875
-0.7335205078125,-0.69775390625,-0.041259765625,80.169677734375,-31.47125244140625,44.15130615234375
-0.7152099609375,-0.70751953125,-0.0487060546875,69.1375732421875,-36.61346435546875,42.29736328125
-0.7119140625,-0.6763916015625,-0.0623779296875,64.0106201171875,-38.04779052734375,39.459228515625
-0.72412109375,-0.6363525390625,-0.0716552734375,60.38665771484375,-37.750244140625,37.33062744140625
-0.73974609375,-0.6043701171875,-0.0650634765625,56.37359619140625,-37.7197265625,35.97259521484375
-0.7437744140625,-0.603271484375,-0.0540771484375,52.42919921875,-40.1611328125,35.34698486328125
-0.751953125,-0.6236572265625,-0.0596923828125,49.6063232421875,-42.51861572265625,34.49249267578125
-0.7584228515625,-0.6533203125,-0.07666015625,47.7294921875,-44.09027099609375,33.30230712890625
-0.7615966796875,-0.6678466796875,-0.0782470703125,47.0733642578125,-45.2880859375,31.82220458984375
-0.7576904296875,-0.655517578125,-0.0843505859375,47.55401611328125,-47.7294921875,30.09033203125
-0.7574462890625,-0.6253662109375,-0.0921630859375,47.64556884765625,-49.62158203125,28.9306640625
-0.764404296875,-0.5919189453125,-0.091796875,46.7987060546875,-49.69024658203125,28.84674072265625
-0.77587890625,-0.566650390625,-0.0792236328125,44.51751708984375,-50.018310546875,30.06744384765625
-0.7855224609375,-0.5455322265625,-0.067138671875,42.62542724609375,-52.06298828125,31.7840576171875
-0.8017578125,-0.5225830078125,-0.07470703125,43.02215576171875,-55.4046630859375,34.0118408203125
-0.819580078125,-0.52001953125,-0.1090087890625,45.4559326171875,-57.2662353515625,36.7889404296875
-0.8199462890625,-0.533447265625,-0.1279296875,48.1719970703125,-56.884765625,38.87939453125
-0.8280029296875,-0.5777587890625,-0.11669921875,49.47662353515625,-55.93109130859375,41.45050048828125
-0.8360595703125,-0.6424560546875,-0.084716796875,48.2177734375,-54.80194091796875,45.35675048828125
-0.8330078125,-0.7315673828125,-0.0408935546875,44.67010498046875,-49.79705810546875,47.75238037109375
-0.8267822265625,-0.7825927734375,0.0037841796875,41.7938232421875,-41.6107177734375,45.69244384765625
-0.8466796875,-0.776123046875,0.0108642578125,41.32080078125,-34.46197509765625,40.985107421875
-0.8814697265625,-0.7105712890625,-0.0211181640625,43.0755615234375,-28.40423583984375,34.85107421875
-0.9195556640625,-0.638427734375,-0.0400390625,42.39654541015625,-23.10943603515625,30.1513671875
-0.9482421875,-0.6024169921875,-0.031494140625,39.4439697265625,-18.53179931640625,27.2674560546875
-0.9681396484375,-0.5880126953125,-0.0145263671875,38.18511962890625,-14.44244384765625,25.2685546875
-0.98486328125,-0.564697265625,-0.0263671875,40.6494140625,-10.21575927734375,24.60479736328125
-1.0159912109375,-0.5418701171875,-0.060302734375,45.18890380859375,-3.7078857421875,24.40643310546875
-1.0306396484375,-0.51416015625,-0.1058349609375,49.4384765625,3.25775146484375,24.1546630859375
-1.0279541015625,-0.519287109375,-0.1502685546875,51.65863037109375,9.6893310546875,25.48980712890625
-1.0279541015625,-0.5697021484375,-0.177001953125,51.3153076171875,14.82391357421875,27.83203125
-1.0146484375,-0.6595458984375,-0.1776123046875,47.70660400390625,18.21136474609375,29.44183349609375
-0.9854736328125,-0.7523193359375,-0.1944580078125,43.02215576171875,18.707275390625,29.67071533203125
-0.962158203125,-0.8250732421875,-0.2275390625,39.306640625,20.0347900390625,27.54974365234375
-0.924560546875,-0.860595703125,-0.2652587890625,35.65216064453125,24.62005615234375,22.2930908203125
-0.8785400390625,-0.8240966796875,-0.3096923828125,33.97369384765625,34.09576416015625,15.07568359375
-0.849365234375,-0.7606201171875,-0.3392333984375,32.7301025390625,47.79815673828125,8.4991455078125
-0.834228515625,-0.701904296875,-0.3173828125,26.91650390625,61.54632568359375,2.87628173828125
-0.8173828125,-0.642578125,-0.3111572265625,16.18194580078125,70.56427001953125,-1.89971923828125
-0.818359375,-0.5859375,-0.315673828125,0.28228759765625,76.08795166015625,-5.584716796875
-0.8345947265625,-0.568115234375,-0.3232421875,-15.15960693359375,82.05413818359375,-8.14056396484375
-0.86865234375,-0.575439453125,-0.2601318359375,-26.06964111328125,94.5281982421875,-10.894775390625
-0.9012451171875,-0.601806640625,-0.1226806640625,-40.53497314453125,108.61968994140625,-14.9383544921875
-0.9222412109375,-0.662109375,0.057861328125,-62.7288818359375,119.5068359375,-19.3023681640625
-0.93505859375,-0.746826171875,0.21044921875,-83.03070068359375,128.16619873046875,-22.72796630859375
-0.9595947265625,-0.81103515625,0.2705078125,-87.83721923828125,135.8642578125,-26.34429931640625
-0.9822998046875,-0.8494873046875,0.2100830078125,-75.5462646484375,146.728515625,-30.4718017578125
-1.0308837890625,-0.869384765625,0.071044921875,-55.68695068359375,163.116455078125,-35.34698486328125
-1.1019287109375,-0.876220703125,-0.0908203125,-37.34588623046875,183.84552001953125,-40.2374267578125
-1.2198486328125,-0.8526611328125,-0.2149658203125,-25.23040771484375,208.8470458984375,-47.3480224609375
-1.315185546875,-0.7821044921875,-0.2783203125,-16.92962646484375,229.7515869140625,-52.83355712890625
-1.3597412109375,-0.695556640625,-0.2340087890625,-12.8631591796875,239.38751220703125,-56.82373046875
-1.3365478515625,-0.6051025390625,-0.1524658203125,-10.1165771484375,234.58099365234375,-62.3779296875
-1.2589111328125,-0.555419921875,-0.13671875,-6.4544677734375,215.55328369140625,-68.55010986328125
-1.1400146484375,-0.5672607421875,-0.138916015625,-14.3585205078125,184.9365234375,-75.69122314453125
-0.98095703125,-0.6759033203125,-0.1480712890625,-44.73876953125,144.7296142578125,-82.550048828125
-0.8790283203125,-0.732177734375,-0.1539306640625,-66.650390625,118.22509765625,-89.4317626953125
-0.831298828125,-0.6876220703125,-0.13330078125,-82.09228515625,97.7935791015625,-96.50421142578125
-0.7755126953125,-0.6419677734375,-0.1259765625,-91.49169921875,81.8939208984375,-100.7843017578125
-0.7203369140625,-0.6097412109375,-0.1068115234375,-101.0284423828125,68.2373046875,-103.546142578125
-0.656005859375,-0.5899658203125,-0.083984375,-109.9090576171875,55.88531494140625,-105.04150390625
-0.6064453125,-0.583251953125,-0.076416015625,-117.08831787109375,45.5780029296875,-106.5216064453125
-0.593505859375,-0.584228515625,-0.06640625,-124.59564208984375,37.68157958984375,-107.8643798828125
-0.5721435546875,-0.573974609375,-0.052978515625,-131.04248046875,30.7464599609375,-109.771728515625
-0.555419921875,-0.537353515625,-0.03564453125,-135.53619384765625,23.62823486328125,-112.091064453125
-0.537353515625,-0.4837646484375,-0.005859375,-136.02447509765625,18.524169921875,-111.7401123046875
-0.541748046875,-0.417724609375,0.0140380859375,-132.88116455078125,14.3890380859375,-108.5357666015625
-0.5428466796875,-0.350341796875,0.03955078125,-127.9449462890625,10.498046875,-103.912353515625
-0.542236328125,-0.28466796875,0.0606689453125,-120.2239990234375,4.66156005859375,-98.93798828125
-0.552734375,-0.2421875,0.0693359375,-109.32159423828125,-2.6092529296875,-92.53692626953125
-0.522216796875,-0.1900634765625,0.07958984375,-95.123291015625,-10.3302001953125,-84.63287353515625
-0.5091552734375,-0.1424560546875,0.07763671875,-77.30865478515625,-17.852783203125,-76.33209228515625
-0.495849609375,-0.0914306640625,0.067626953125,-57.1136474609375,-24.86419677734375,-67.10052490234375
-0.477783203125,-0.05224609375,0.0377197265625,-35.72845458984375,-32.2265625,-57.037353515625
-0.4630126953125,-0.0361328125,-0.0068359375,-15.5029296875,-39.72625732421875,-46.0052490234375
-0.4453125,-0.02978515625,-0.0623779296875,2.7008056640625,-46.7376708984375,-33.9508056640625
-0.4346923828125,-0.031982421875,-0.133544921875,18.62335205078125,-52.95562744140625,-20.42388916015625
-0.436767578125,-0.045654296875,-0.2049560546875,32.2723388671875,-58.98284912109375,-5.340576171875
-0.45703125,-0.0946044921875,-0.290771484375,42.83905029296875,-64.9871826171875,11.60430908203125
-0.481689453125,-0.176513671875,-0.414794921875,49.40032958984375,-68.71795654296875,28.02276611328125
-0.5233154296875,-0.315185546875,-0.6051025390625,49.072265625,-72.1282958984375,40.42816162109375
-0.5762939453125,-0.53662109375,-0.8577880859375,37.567138671875,-79.59747314453125,49.21722412109375
-0.642333984375,-0.8428955078125,-1.1995849609375,13.58795166015625,-88.31787109375,53.9398193359375
-0.686767578125,-1.253662109375,-1.575927734375,-26.93939208984375,-89.80560302734375,49.55291748046875
-0.7099609375,-1.605712890625,-1.658935546875,-73.47869873046875,-73.4405517578125,32.89031982421875
-0.7138671875,-1.7100830078125,-1.5438232421875,-95.26824951171875,-47.3175048828125,10.2386474609375
-0.7159423828125,-1.6083984375,-1.3177490234375,-98.0224609375,-24.59716796875,-12.12310791015625
-0.6856689453125,-1.395263671875,-1.0936279296875,-94.09332275390625,-11.57379150390625,-32.46307373046875
-0.6004638671875,-1.1929931640625,-0.9349365234375,-87.95166015625,-6.16455078125,-48.34747314453125
-0.4693603515625,-1.06201171875,-0.83251953125,-81.82525634765625,-5.65338134765625,-61.43951416015625
-0.3072509765625,-1.0242919921875,-0.7303466796875,-75.3631591796875,-6.561279296875,-70.831298828125
-0.215576171875,-0.9615478515625,-0.6181640625,-61.45477294921875,-7.87353515625,-74.56207275390625
-0.2415771484375,-0.8165283203125,-0.5447998046875,-44.41070556640625,-13.031005859375,-72.4639892578125
-0.35107421875,-0.607666015625,-0.495849609375,-36.4532470703125,-19.84405517578125,-65.00244140625
-0.486572265625,-0.4337158203125,-0.406005859375,-35.4156494140625,-28.3660888671875,-52.9937744140625
-0.671875,-0.366455078125,-0.2265625,-31.1126708984375,-35.58349609375,-38.01727294921875
-0.985107421875,-0.359375,-0.2379150390625,-21.52252197265625,-32.135009765625,-21.6522216796875
-1.34814453125,-0.42919921875,-0.53173828125,-22.81951904296875,-18.8140869140625,-7.85064697265625
-1.39990234375,-0.6002197265625,-0.552734375,-37.841796875,-4.486083984375,-3.04412841796875
-1.24169921875,-0.571533203125,-0.30712890625,-33.3709716796875,5.50079345703125,-8.0718994140625
-1.1192626953125,-0.2479248046875,-0.2403564453125,-7.38525390625,0.48828125,-12.38250732421875
-1.05322265625,0.217529296875,-0.3096923828125,12.5274658203125,-14.68658447265625,-6.9427490234375
-0.925537109375,0.3570556640625,-0.157958984375,3.59344482421875,-28.63311767578125,11.13128662109375
-0.7843017578125,-0.0125732421875,0.2130126953125,-4.1351318359375,-35.2783203125,37.7349853515625
-0.722412109375,-0.4150390625,0.4896240234375,17.547607421875,-22.9949951171875,57.342529296875
-0.776611328125,-0.58935546875,0.4796142578125,53.62701416015625,-6.47735595703125,63.323974609375
-0.872802734375,-0.6827392578125,0.3616943359375,76.24053955078125,-4.12750244140625,60.6689453125
-0.91796875,-0.8011474609375,0.20263671875,81.2530517578125,-18.51654052734375,56.06842041015625
-0.88916015625,-0.9022216796875,0.058349609375,76.66015625,-37.63580322265625,51.96380615234375
-0.8538818359375,-0.90087890625,-0.0184326171875,65.46783447265625,-52.17742919921875,46.9207763671875
-0.8438720703125,-0.7991943359375,-0.0560302734375,50.323486328125,-60.00518798828125,42.4652099609375
-0.8631591796875,-0.6473388671875,-0.0665283203125,35.33935546875,-62.95013427734375,40.10009765625
-0.892578125,-0.47998046875,-0.080810546875,25.01678466796875,-62.44659423828125,40.88592529296875
-0.927490234375,-0.340087890625,-0.1141357421875,20.4010009765625,-64.14031982421875,44.403076171875
-0.934326171875,-0.25,-0.1536865234375,19.56939697265625,-68.67218017578125,48.9501953125
-0.926025390625,-0.223388671875,-0.1671142578125,19.9432373046875,-75.17242431640625,53.9093017578125
-0.9144287109375,-0.2633056640625,-0.161376953125,19.18792724609375,-81.94732666015625,57.41119384765625
-0.889892578125,-0.361083984375,-0.1417236328125,15.6097412109375,-90.00396728515625,59.91363525390625
-0.8330078125,-0.477783203125,-0.1107177734375,11.566162109375,-99.86114501953125,59.13543701171875
-0.770751953125,-0.5478515625,-0.105712890625,13.24462890625,-107.3455810546875,54.19921875
-0.7269287109375,-0.5634765625,-0.1175537109375,17.9290771484375,-111.76300048828125,46.93603515625
-0.7161865234375,-0.55859375,-0.14453125,21.27838134765625,-113.861083984375,39.2608642578125
-0.7041015625,-0.54443359375,-0.1495361328125,24.48272705078125,-113.99078369140625,32.958984375
-0.7015380859375,-0.54150390625,-0.161865234375,28.93829345703125,-114.3341064453125,28.49578857421875
-0.7227783203125,-0.5230712890625,-0.1656494140625,30.94482421875,-113.4033203125,23.895263671875
-0.7396240234375,-0.5128173828125,-0.129150390625,33.14208984375,-110.45074462890625,21.05712890625
-0.738525390625,-0.5130615234375,-0.0733642578125,35.83526611328125,-107.8033447265625,19.24896240234375
-0.7467041015625,-0.5062255859375,-0.01513671875,38.57421875,-104.17938232421875,17.31109619140625
-0.7724609375,-0.4896240234375,-0.0010986328125,43.060302734375,-102.63824462890625,16.24298095703125
-0.8006591796875,-0.455322265625,-0.0526123046875,47.882080078125,-103.95050048828125,16.83807373046875
-0.8287353515625,-0.43701171875,-0.1363525390625,52.6580810546875,-103.73687744140625,18.19610595703125
-0.8548583984375,-0.4234619140625,-0.2044677734375,55.30548095703125,-101.0284423828125,20.85113525390625
-0.87255859375,-0.434814453125,-0.20703125,56.25152587890625,-94.0093994140625,24.14703369140625
-0.86474609375,-0.4412841796875,-0.17236328125,57.41119384765625,-86.6851806640625,28.7322998046875
-0.8795166015625,-0.4637451171875,-0.149658203125,58.11309814453125,-82.06939697265625,33.4930419921875
-0.89453125,-0.4805908203125,-0.1138916015625,60.41717529296875,-76.63726806640625,37.384033203125
-0.88525390625,-0.4925537109375,-0.0908203125,63.46893310546875,-73.8525390625,41.1834716796875
-0.9114990234375,-0.5101318359375,-0.08056640625,63.629150390625,-70.91522216796875,44.18182373046875
-0.943115234375,-0.53515625,-0.098388671875,63.81988525390625,-66.46728515625,46.13494873046875
-0.9281005859375,-0.5657958984375,-0.173095703125,66.6351318359375,-61.18011474609375,47.05810546875
-0.9248046875,-0.614990234375,-0.2457275390625,67.2149658203125,-54.00848388671875,47.4700927734375
-0.91650390625,-0.6851806640625,-0.252197265625,64.2852783203125,-42.85430908203125,47.73712158203125
-0.9083251953125,-0.7716064453125,-0.1734619140625,59.722900390625,-29.6478271484375,47.08099365234375
-0.8834228515625,-0.83837890625,-0.0616455078125,56.0455322265625,-18.76068115234375,44.51751708984375
-0.8604736328125,-0.8807373046875,0.0240478515625,53.10821533203125,-11.60430908203125,39.5355224609375
-0.8355712890625,-0.8973388671875,0.044921875,49.62158203125,-9.23919677734375,34.17205810546875
-0.8265380859375,-0.90380859375,0.0107421875,43.975830078125,-9.43756103515625,29.937744140625
-0.8504638671875,-0.883056640625,-0.0343017578125,37.77313232421875,-8.941650390625,26.3671875
-0.866455078125,-0.840576171875,-0.0849609375,35.5072021484375,-4.58526611328125,24.7344970703125
-0.908203125,-0.8421630859375,-0.1104736328125,35.01129150390625,1.9683837890625,26.275634765625
-0.937744140625,-0.9005126953125,-0.105224609375,33.63037109375,10.90240478515625,26.63421630859375
-0.943359375,-0.9495849609375,-0.0914306640625,27.45819091796875,15.93017578125,24.7344970703125
-0.93408203125,-0.9481201171875,-0.1171875,18.6767578125,18.33343505859375,20.4925537109375
-0.920654296875,-0.8992919921875,-0.1929931640625,9.857177734375,21.026611328125,14.70947265625
-0.91748046875,-0.8135986328125,-0.2564697265625,-2.02178955078125,24.60479736328125,7.9193115234375
-0.894287109375,-0.742919921875,-0.3251953125,-15.9912109375,28.86962890625,2.11334228515625
-0.8515625,-0.6971435546875,-0.3504638671875,-30.731201171875,36.4227294921875,-3.12042236328125
-0.8096923828125,-0.6939697265625,-0.3487548828125,-45.7000732421875,43.78509521484375,-8.59832763671875
-0.7862548828125,-0.72021484375,-0.3248291015625,-60.0128173828125,51.56707763671875,-14.9993896484375
-0.8004150390625,-0.7508544921875,-0.316650390625,-73.211669921875,58.64715576171875,-22.85003662109375
-0.8577880859375,-0.7607421875,-0.244384765625,-86.18927001953125,70.47271728515625,-32.1807861328125
-0.946044921875,-0.7237548828125,-0.0611572265625,-101.959228515625,88.31024169921875,-43.27392578125
-1.0455322265625,-0.649169921875,0.150146484375,-123.61907958984375,102.60009765625,-54.74853515625
-1.1507568359375,-0.608642578125,0.2843017578125,-146.636962890625,107.20062255859375,-63.5528564453125
-1.25390625,-0.5897216796875,0.258056640625,-153.7017822265625,107.4371337890625,-69.08416748046875
-1.34423828125,-0.5863037109375,0.0750732421875,-140.61737060546875,115.89813232421875,-70.51849365234375
-1.4617919921875,-0.576416015625,-0.1153564453125,-117.71392822265625,139.16015625,-70.50323486328125
-1.577392578125,-0.5531005859375,-0.2296142578125,-96.70257568359375,172.35565185546875,-69.37408447265625
-1.6591796875,-0.5242919921875,-0.2637939453125,-79.0863037109375,205.963134765625,-68.71795654296875
-1.6790771484375,-0.465087890625,-0.238525390625,-59.1583251953125,229.3853759765625,-69.0765380859375
-1.6090087890625,-0.3927001953125,-0.207763671875,-34.88922119140625,240.78369140625,-68.09234619140625
-1.473876953125,-0.3651123046875,-0.1644287109375,-14.556884765625,235.14556884765625,-66.70379638671875
-1.3397216796875,-0.383056640625,-0.17138671875,-5.07354736328125,214.569091796875,-65.6890869140625
-1.1923828125,-0.519775390625,-0.129150390625,-16.54815673828125,186.4013671875,-67.718505859375
-0.9476318359375,-0.7279052734375,-0.105224609375,-40.56549072265625,152.34375,-75.70648193359375
-0.8218994140625,-0.80029296875,-0.11083984375,-54.6112060546875,127.32696533203125,-87.22686767578125
-0.767822265625,-0.7757568359375,-0.1046142578125,-59.39483642578125,111.9232177734375,-97.67913818359375
-0.7135009765625,-0.7298583984375,-0.108154296875,-64.5904541015625,94.81048583984375,-105.85784912109375
-0.658203125,-0.677490234375,-0.07421875,-75.9735107421875,78.033447265625,-114.05181884765625
-0.626708984375,-0.6187744140625,-0.02197265625,-90.91949462890625,65.14739990234375,-121.55914306640625
-0.5867919921875,-0.5509033203125,0.001708984375,-104.97283935546875,52.49786376953125,-129.18853759765625
-0.572021484375,-0.46435546875,0.0283203125,-118.560791015625,41.80908203125,-135.94818115234375
-0.540283203125,-0.386962890625,0.0589599609375,-129.69207763671875,33.99658203125,-137.75634765625
-0.5328369140625,-0.3177490234375,0.0810546875,-137.786865234375,25.1617431640625,-136.0015869140625
-0.5374755859375,-0.24755859375,0.1064453125,-143.16558837890625,16.845703125,-132.659912109375
-0.545166015625,-0.1856689453125,0.1278076171875,-146.78192138671875,8.07952880859375,-129.89044189453125
-0.547119140625,-0.127197265625,0.1510009765625,-147.674560546875,-0.63323974609375,-125.66375732421875
-0.5257568359375,-0.078125,0.169921875,-143.6309814453125,-10.101318359375,-119.5068359375
-0.5084228515625,-0.0367431640625,0.1761474609375,-133.68988037109375,-20.37811279296875,-111.8927001953125
-0.48095703125,-0.0030517578125,0.17041015625,-118.1488037109375,-30.1055908203125,-102.4169921875
-0.438720703125,0.0234375,0.16064453125,-97.02301025390625,-39.19219970703125,-92.0562744140625
-0.3905029296875,0.030029296875,0.141845703125,-71.4263916015625,-47.50823974609375,-81.15386962890625
-0.34619140625,0.0234375,0.1094970703125,-42.71697998046875,-54.931640625,-69.74029541015625
-0.3172607421875,0.0076904296875,0.0589599609375,-12.6953125,-61.9964599609375,-57.4493408203125
-0.31396484375,-0.0123291015625,-0.0096435546875,15.55633544921875,-69.38934326171875,-43.73931884765625
-0.3369140625,-0.030517578125,-0.0765380859375,40.1458740234375,-76.68304443359375,-28.28216552734375
-0.3935546875,-0.0640869140625,-0.1676025390625,61.2640380859375,-85.07537841796875,-12.4664306640625
-0.45263671875,-0.1688232421875,-0.337158203125,76.7364501953125,-96.4202880859375,1.97601318359375
-0.5167236328125,-0.387939453125,-0.6124267578125,81.21490478515625,-107.30743408203125,13.34381103515625
-0.6636962890625,-0.710693359375,-1.0281982421875,69.86236572265625,-112.70904541015625,20.66802978515625
-0.84765625,-1.10888671875,-1.480224609375,39.0167236328125,-105.75103759765625,22.430419921875
-0.9521484375,-1.3475341796875,-1.8916015625,-6.256103515625,-89.0655517578125,16.082763671875
-0.9439697265625,-1.3756103515625,-1.937744140625,-56.5338134765625,-65.155029296875,2.34222412109375
-0.8812255859375,-1.2813720703125,-1.72314453125,-88.31787109375,-42.755126953125,-14.190673828125
-0.818603515625,-1.134033203125,-1.4080810546875,-96.87042236328125,-26.1077880859375,-28.4423828125
-0.74365234375,-0.95751953125,-1.1434326171875,-89.8895263671875,-14.77813720703125,-37.872314453125
-0.6478271484375,-0.7957763671875,-0.984130859375,-77.0721435546875,-6.44683837890625,-42.724609375
-0.5052490234375,-0.7156982421875,-0.91064453125,-68.695068359375,-1.495361328125,-44.18182373046875
-0.3585205078125,-0.728759765625,-0.8509521484375,-63.873291015625,-2.76947021484375,-45.1812744140625
-0.295654296875,-0.7484130859375,-0.76513671875,-55.206298828125,-6.00433349609375,-45.90606689453125
-0.401123046875,-0.69287109375,-0.72021484375,-46.7071533203125,-7.59124755859375,-44.04449462890625
-0.5592041015625,-0.535888671875,-0.6597900390625,-46.10443115234375,-8.88824462890625,-38.238525390625
-0.724609375,-0.4014892578125,-0.4739990234375,-41.412353515625,-10.0860595703125,-27.22930908203125
-0.9517822265625,-0.34765625,-0.133544921875,-18.646240234375,-5.859375,-12.94708251953125
-1.3165283203125,-0.332275390625,-0.0699462890625,16.42608642578125,3.6773681640625,1.983642578125
-1.6480712890625,-0.2996826171875,-0.4783935546875,32.87506103515625,11.810302734375,15.28167724609375
-1.59228515625,-0.4708251953125,-0.659423828125,15.0604248046875,22.1405029296875,24.0325927734375
-1.3668212890625,-0.423095703125,-0.367919921875,7.4920654296875,35.02655029296875,22.62115478515625
-1.18310546875,-0.045654296875,-0.2783203125,26.81732177734375,28.2440185546875,23.17047119140625
-1.0672607421875,0.3416748046875,-0.19482421875,27.48870849609375,13.90838623046875,31.28814697265625
-0.87255859375,0.1929931640625,0.075927734375,11.3372802734375,-9.307861328125,51.544189453125
-0.6610107421875,-0.4364013671875,0.476318359375,25.5126953125,-20.1263427734375,74.1424560546875
-0.63623046875,-0.7332763671875,0.7020263671875,78.30810546875,4.05120849609375,83.88519287109375
-0.7581787109375,-0.786865234375,0.693359375,132.10296630859375,33.782958984375,81.12335205078125
-0.942626953125,-0.8143310546875,0.4951171875,164.154052734375,33.11920166015625,70.35064697265625
-1.0162353515625,-0.9310302734375,0.2293701171875,175.49896240234375,13.397216796875,60.3485107421875
-0.9891357421875,-1.047119140625,0.051513671875,171.34857177734375,-9.7808837890625,51.00250244140625
-0.947998046875,-1.0137939453125,-0.0118408203125,163.16986083984375,-25.01678466796875,41.56494140625
-0.929443359375,-0.8128662109375,-0.0421142578125,156.9366455078125,-30.58624267578125,35.888671875
-0.9324951171875,-0.553955078125,-0.026611328125,146.40045166015625,-30.029296875,36.468505859375
-0.934814453125,-0.367919921875,-0.0279541015625,136.138916015625,-29.1595458984375,43.44940185546875
-0.9344482421875,-0.238525390625,-0.05712890625,132.25555419921875,-26.0772705078125,54.23736572265625
-0.9306640625,-0.1854248046875,-0.0965576171875,132.1563720703125,-22.3236083984375,67.1539306640625
-0.9349365234375,-0.1766357421875,-0.09716796875,131.683349609375,-18.37158203125,79.71954345703125
-0.933837890625,-0.2161865234375,-0.0545654296875,133.9263916015625,-17.7764892578125,91.278076171875
-0.9039306640625,-0.2864990234375,-0.0233154296875,138.66424560546875,-22.735595703125,97.05352783203125
-0.869140625,-0.41162109375,-0.0260009765625,143.83697509765625,-28.48052978515625,98.6328125
-0.82373046875,-0.5513916015625,-0.0489501953125,149.59716796875,-28.29742431640625,97.49603271484375
-0.7801513671875,-0.6640625,-0.0433349609375,150.76446533203125,-26.4892578125,91.27044677734375
-0.7364501953125,-0.7418212890625,-0.011474609375,142.8680419921875,-26.702880859375,81.96258544921875
-0.7080078125,-0.7548828125,0.00439453125,131.77490234375,-28.16009521484375,71.47979736328125
-0.69775390625,-0.7235107421875,0.0050048828125,119.9493408203125,-29.79278564453125,60.516357421875
-0.695556640625,-0.682861328125,0.0059814453125,109.06982421875,-30.11322021484375,52.2918701171875
-0.69873046875,-0.6519775390625,0.02099609375,100.47149658203125,-31.0821533203125,45.92132568359375
-0.68994140625,-0.6212158203125,0.0240478515625,94.88677978515625,-34.29412841796875,41.015625
-0.69140625,-0.6112060546875,-0.0223388671875,92.8497314453125,-37.65869140625,38.91754150390625
-0.6962890625,-0.611328125,-0.0712890625,93.3380126953125,-38.482666015625,38.62762451171875
-0.7154541015625,-0.6170654296875,-0.11669921875,94.36798095703125,-38.41400146484375,38.39111328125
-0.744384765625,-0.62744140625,-0.132568359375,91.98760986328125,-38.5894775390625,39.36767578125
-0.756591796875,-0.6392822265625,-0.12109375,85.57891845703125,-41.0308837890625,41.34368896484375
-0.7760009765625,-0.64794921875,-0.09375,78.77349853515625,-43.7164306640625,41.56494140625
-0.7841796875,-0.6640625,-0.0755615234375,73.35662841796875,-48.98834228515625,43.34259033203125
-0.775146484375,-0.67724609375,-0.05810546875,70.5413818359375,-54.6112060546875,44.5709228515625
-0.7996826171875,-0.6541748046875,-0.06884765625,70.281982421875,-60.26458740234375,43.63250732421875
-0.8211669921875,-0.608154296875,-0.1129150390625,70.25146484375,-66.65802001953125,43.1365966796875
-0.84033203125,-0.571044921875,-0.2003173828125,72.94464111328125,-71.02203369140625,43.4417724609375
-0.8404541015625,-0.572021484375,-0.3087158203125,78.4149169921875,-72.25799560546875,47.44720458984375
-0.8228759765625,-0.6529541015625,-0.3731689453125,80.25360107421875,-66.2078857421875,53.81011962890625
-0.7813720703125,-0.761474609375,-0.32080078125,72.53265380859375,-53.64990234375,59.661865234375
-0.7623291015625,-0.880615234375,-0.1944580078125,58.11309814453125,-39.4134521484375,63.69781494140625
-0.7681884765625,-0.9671630859375,-0.0701904296875,45.8221435546875,-29.4189453125,62.64495849609375
-0.7745361328125,-1.0167236328125,-0.0230712890625,40.71807861328125,-26.17645263671875,56.21337890625
-0.76904296875,-0.9969482421875,-0.0640869140625,38.70391845703125,-26.0772705078125,46.36383056640625
-0.7718505859375,-0.952880859375,-0.139404296875,35.58349609375,-24.04022216796875,37.841796875
-0.778564453125,-0.89794921875,-0.196533203125,30.20477294921875,-18.98956298828125,30.059814453125
-0.7745361328125,-0.8394775390625,-0.1820068359375,22.9644775390625,-10.1165771484375,23.529052734375
-0.768798828125,-0.82763671875,-0.1383056640625,18.86749267578125,1.10626220703125,19.9737548828125
-0.781494140625,-0.8165283203125,-0.1273193359375,18.310546875,10.97869873046875,18.71490478515625
-0.8177490234375,-0.83837890625,-0.1717529296875,21.0113525390625,19.53887939453125,17.8985595703125
-0.8577880859375,-0.8671875,-0.231201171875,22.89581298828125,28.1524658203125,15.87677001953125
-0.8984375,-0.8572998046875,-0.2833251953125,19.4091796875,35.7818603515625,11.98577880859375
-0.939208984375,-0.8240966796875,-0.32470703125,10.45989990234375,41.02325439453125,5.60760498046875
-0.9429931640625,-0.7708740234375,-0.313232421875,-4.302978515625,43.6859130859375,-3.04412841796875
-0.921875,-0.7288818359375,-0.2972412109375,-21.331787109375,45.7916259765625,-10.94818115234375
-0.8870849609375,-0.6993408203125,-0.310791015625,-38.5284423828125,47.42431640625,-18.22662353515625
-0.8594970703125,-0.697509765625,-0.28125,-55.8929443359375,53.0548095703125,-24.566650390625
-0.8546142578125,-0.7115478515625,-0.22607421875,-73.30322265625,61.676025390625,-30.76171875
-0.8887939453125,-0.692138671875,-0.113037109375,-91.34674072265625,75.26397705078125,-38.0096435546875
-0.9713134765625,-0.6385498046875,0.0501708984375,-112.14447021484375,96.0540771484375,-45.3033447265625
-1.0914306640625,-0.58056640625,0.20947265625,-130.83648681640625,117.6910400390625,-51.59759521484375
-1.2158203125,-0.5400390625,0.2647705078125,-134.8419189453125,135.29205322265625,-55.450439453125
-1.3055419921875,-0.5084228515625,0.176025390625,-113.739013671875,150.4974365234375,-56.89239501953125
-1.393310546875,-0.498779296875,-0.031494140625,-74.27215576171875,170.440673828125,-58.46405029296875
-1.5235595703125,-0.470947265625,-0.2474365234375,-37.49847412109375,198.6846923828125,-61.4471435546875
-1.63720703125,-0.4180908203125,-0.3284912109375,-19.866943359375,225.86822509765625,-63.83514404296875
-1.6866455078125,-0.344482421875,-0.288330078125,-9.796142578125,240.325927734375,-66.04766845703125
-1.653564453125,-0.3004150390625,-0.267822265625,6.34765625,241.79840087890625,-67.81005859375
-1.5303955078125,-0.3001708984375,-0.2750244140625,25.360107421875,239.959716796875,-66.73431396484375
-1.4112548828125,-0.423583984375,-0.22119140625,29.93011474609375,225.5706787109375,-64.70489501953125
-1.2730712890625,-0.7032470703125,-0.1383056640625,2.9296875,190.49835205078125,-73.699951171875
-1.12646484375,-0.759521484375,-0.157470703125,-15.68603515625,159.7747802734375,-85.63232421875
-1.0380859375,-0.7218017578125,-0.1376953125,-17.21954345703125,143.7835693359375,-91.9189453125
-0.977783203125,-0.6485595703125,-0.123046875,-15.92254638671875,126.2359619140625,-98.236083984375
-0.8858642578125,-0.5804443359375,-0.1162109375,-14.06097412109375,110.198974609375,-102.294921875
-0.7933349609375,-0.570556640625,-0.1495361328125,-17.02880859375,99.945068359375,-105.44586181640625
-0.735595703125,-0.578125,-0.13671875,-31.60858154296875,91.23992919921875,-108.5662841796875
-0.6663818359375,-0.574462890625,-0.09765625,-47.44720458984375,81.6192626953125,-108.7799072265625
-0.635986328125,-0.513916015625,-0.0692138671875,-58.28094482421875,72.34954833984375,-106.20880126953125
-0.603271484375,-0.40625,-0.0316162109375,-66.3604736328125,65.093994140625,-102.813720703125
-0.5853271484375,-0.30029296875,-0.012939453125,-70.80841064453125,57.38067626953125,-98.32000732421875
-0.5767822265625,-0.1964111328125,0.00830078125,-71.3958740234375,50.3997802734375,-91.25518798828125
-0.5548095703125,-0.0966796875,0.030517578125,-68.695068359375,44.10552978515625,-82.1380615234375
-0.5343017578125,-0.0029296875,0.048583984375,-63.46893310546875,37.2772216796875,-71.6705322265625
-0.503662109375,0.0797119140625,0.0677490234375,-55.97686767578125,29.510498046875,-59.24224853515625
-0.469970703125,0.120361328125,0.082763671875,-46.50115966796875,21.96502685546875,-45.074462890625
-0.4422607421875,0.1207275390625,0.0924072265625,-34.332275390625,15.19012451171875,-29.27398681640625
-0.4197998046875,0.11181640625,0.0982666015625,-17.852783203125,8.76617431640625,-12.359619140625
-0.3909912109375,0.1082763671875,0.096923828125,2.84576416015625,2.14385986328125,4.78363037109375
-0.362060546875,0.10498046875,0.0867919921875,25.7415771484375,-4.425048828125,21.9573974609375
-0.34423828125,0.0806884765625,0.072265625,48.095703125,-11.97052001953125,39.07012939453125
-0.337890625,0.0137939453125,0.0489501953125,69.244384765625,-22.552490234375,54.901123046875
-0.33447265625,-0.1451416015625,-0.0380859375,88.43994140625,-36.80419921875,67.54302978515625
-0.34814453125,-0.34033203125,-0.21142578125,101.959228515625,-54.29840087890625,75.7598876953125
-0.34912109375,-0.5677490234375,-0.4197998046875,103.424072265625,-72.4334716796875,79.8797607421875
-0.365478515625,-0.8634033203125,-0.6478271484375,93.719482421875,-86.0137939453125,78.0029296875
-0.4130859375,-1.285888671875,-0.7982177734375,87.2650146484375,-82.02362060546875,72.86834716796875
-0.514404296875,-1.5643310546875,-0.94482421875,97.0306396484375,-56.640625,62.8814697265625
-0.56982421875,-1.6483154296875,-0.9754638671875,106.75048828125,-23.99444580078125,46.25701904296875
-0.5765380859375,-1.571044921875,-0.860595703125,108.9630126953125,0.5340576171875,23.20098876953125
-0.581787109375,-1.377685546875,-0.5869140625,111.59515380859375,19.37103271484375,2.03704833984375
-0.6427001953125,-1.091552734375,-0.300537109375,123.08502197265625,38.51318359375,-10.12420654296875
-0.836669921875,-0.832275390625,-0.16357421875,139.617919921875,59.95941162109375,-9.7198486328125
-1.1376953125,-0.69482421875,-0.1336669921875,153.1982421875,75.103759765625,0.78582763671875
-1.392822265625,-0.6783447265625,-0.1966552734375,158.34808349609375,93.0023193359375,15.2587890625
-1.56591796875,-0.746826171875,-0.78564453125,153.594970703125,106.4910888671875,23.46038818359375
-1.60009765625,-0.7645263671875,-1.3863525390625,126.06048583984375,89.85137939453125,15.49530029296875
-1.50244140625,-0.6075439453125,-1.0234375,88.409423828125,93.20831298828125,3.3721923828125
-1.32763671875,-0.3741455078125,-0.73095703125,66.558837890625,101.37939453125,4.0740966796875
-1.1846923828125,-0.00146484375,-0.5645751953125,70.68634033203125,95.6573486328125,18.61572265625
-1.080078125,0.2626953125,-0.1534423828125,73.8067626953125,89.89715576171875,39.764404296875
-1.0074462890625,0.2120361328125,0.2833251953125,67.74139404296875,90.55328369140625,69.08416748046875
-0.98095703125,-0.0950927734375,0.598388671875,78.97186279296875,100.16632080078125,101.81427001953125
-1.0247802734375,-0.494873046875,0.6934814453125,109.3597412109375,103.8360595703125,124.16839599609375
-1.0628662109375,-0.8265380859375,0.5264892578125,148.97918701171875,80.9326171875,131.43157958984375
-0.9908447265625,-1.0548095703125,0.2276611328125,174.43084716796875,46.7529296875,125.40435791015625
-0.8878173828125,-1.1656494140625,0.0255126953125,174.26300048828125,25.4974365234375,113.88397216796875
-0.811279296875,-1.16455078125,-0.1123046875,156.4178466796875,20.77484130859375,102.325439453125
-0.772216796875,-1.050537109375,-0.1807861328125,129.08935546875,25.0396728515625,92.14019775390625
-0.7662353515625,-0.8544921875,-0.1729736328125,101.46331787109375,30.69305419921875,83.59527587890625
-0.7825927734375,-0.5836181640625,-0.144775390625,81.36749267578125,33.02764892578125,78.43780517578125
-0.8056640625,-0.3438720703125,-0.1290283203125,71.6705322265625,33.28704833984375,79.68902587890625
-0.805908203125,-0.2220458984375,-0.126708984375,72.60894775390625,33.721923828125,87.066650390625
-0.780029296875,-0.2652587890625,-0.099365234375,80.37567138671875,36.2701416015625,97.16033935546875
-0.7342529296875,-0.4248046875,-0.0625,87.33367919921875,38.818359375,105.316162109375
-0.6683349609375,-0.6151123046875,-0.0623779296875,88.56201171875,39.03961181640625,107.2540283203125
-0.6109619140625,-0.791259765625,-0.09423828125,79.70428466796875,36.895751953125,105.35430908203125
-0.5755615234375,-0.85986328125,-0.134765625,64.68963623046875,32.53173828125,96.832275390625
-0.5693359375,-0.8277587890625,-0.1400146484375,53.84063720703125,31.05926513671875,85.5560302734375
-0.55810546875,-0.7913818359375,-0.1600341796875,43.8995361328125,27.10723876953125,76.3092041015625
-0.55224609375,-0.763427734375,-0.160400390625,30.45654296875,22.02606201171875,70.648193359375
-0.5677490234375,-0.75146484375,-0.1744384765625,22.186279296875,16.86859130859375,66.314697265625
-0.5679931640625,-0.7513427734375,-0.192626953125,17.51708984375,12.14599609375,64.26239013671875
-0.5745849609375,-0.76220703125,-0.2283935546875,14.65606689453125,7.14874267578125,62.62969970703125
-0.57275390625,-0.766357421875,-0.278076171875,11.90185546875,2.29644775390625,61.3250732421875
-0.5699462890625,-0.760009765625,-0.3111572265625,8.04901123046875,-1.73187255859375,60.31036376953125
-0.560546875,-0.7568359375,-0.326171875,4.150390625,-4.78363037109375,59.814453125
-0.5518798828125,-0.7550048828125,-0.3233642578125,0.6561279296875,-7.56072998046875,59.44061279296875
-0.541748046875,-0.7518310546875,-0.3153076171875,-1.82342529296875,-10.68115234375,59.41009521484375
-0.5343017578125,-0.74462890625,-0.3125,-3.60107421875,-13.6260986328125,59.33380126953125
-0.5322265625,-0.734619140625,-0.304931640625,-5.62286376953125,-15.56396484375,58.837890625
-0.544921875,-0.719970703125,-0.29296875,-8.56781005859375,-17.20428466796875,57.59429931640625
-0.5712890625,-0.6981201171875,-0.273193359375,-12.59613037109375,-19.0582275390625,55.511474609375
-0.6097412109375,-0.6778564453125,-0.259521484375,-16.27349853515625,-20.45440673828125,52.7496337890625
-0.644775390625,-0.663818359375,-0.241455078125,-20.24078369140625,-21.5606689453125,49.7283935546875
-0.6719970703125,-0.6656494140625,-0.230224609375,-24.200439453125,-23.06365966796875,46.966552734375
-0.6690673828125,-0.6761474609375,-0.208251953125,-27.70233154296875,-22.64404296875,44.92950439453125
-0.6485595703125,-0.722900390625,-0.1929931640625,-30.00640869140625,-22.0794677734375,45.074462890625
-0.6282958984375,-0.7945556640625,-0.18603515625,-33.42437744140625,-19.10400390625,43.6248779296875
-0.6259765625,-0.8277587890625,-0.1435546875,-38.57421875,-14.22119140625,39.764404296875
-0.66162109375,-0.834228515625,-0.09521484375,-42.18292236328125,-10.50567626953125,36.81182861328125
-0.7181396484375,-0.84326171875,-0.0648193359375,-45.53985595703125,-8.47625732421875,33.53118896484375
-0.7587890625,-0.8753662109375,-0.001220703125,-49.9114990234375,-7.82012939453125,30.3802490234375
-0.7939453125,-0.8927001953125,-0.00146484375,-51.84173583984375,-11.46697998046875,29.510498046875
-0.840576171875,-0.9266357421875,-0.0228271484375,-56.90765380859375,-15.63262939453125,29.60968017578125
-0.8487548828125,-0.9603271484375,-0.0574951171875,-65.22369384765625,-19.93560791015625,29.22821044921875
-0.8935546875,-0.99951171875,-0.175537109375,-74.91302490234375,-25.27618408203125,28.32794189453125
-0.9481201171875,-0.9781494140625,-0.3028564453125,-87.493896484375,-29.47235107421875,22.86529541015625
-0.98681640625,-0.9312744140625,-0.410888671875,-97.32818603515625,-29.68597412109375,15.31982421875
-1.0296630859375,-0.8360595703125,-0.5078125,-99.66278076171875,-24.4598388671875,7.5225830078125
-1.051513671875,-0.771484375,-0.529296875,-98.785400390625,-14.312744140625,1.3885498046875
-1.0535888671875,-0.753173828125,-0.48974609375,-98.94561767578125,-1.1749267578125,-3.37982177734375
-1.060791015625,-0.73046875,-0.4158935546875,-104.583740234375,10.23101806640625,-8.73565673828125
-1.063720703125,-0.669677734375,-0.352783203125,-114.18914794921875,18.73016357421875,-15.44952392578125
-1.0555419921875,-0.6021728515625,-0.31494140625,-120.03326416015625,27.130126953125,-23.1170654296875
-1.0447998046875,-0.5474853515625,-0.2835693359375,-117.39349365234375,37.7960205078125,-30.98297119140625
-1.0704345703125,-0.45703125,-0.27978515625,-100.799560546875,55.816650390625,-39.02435302734375
-1.1385498046875,-0.360595703125,-0.298828125,-73.66943359375,80.69610595703125,-48.187255859375
-1.2401123046875,-0.29052734375,-0.346923828125,-46.32568359375,104.5684814453125,-60.150146484375
-1.313232421875,-0.212158203125,-0.37841796875,-23.590087890625,119.17877197265625,-72.31903076171875
-1.3206787109375,-0.199951171875,-0.411376953125,-7.62939453125,121.734619140625,-80.60455322265625
-1.275146484375,-0.34814453125,-0.38671875,4.45556640625,114.98260498046875,-84.7930908203125
-1.205322265625,-0.58544921875,-0.348388671875,21.96502685546875,104.55322265625,-90.21759033203125
-1.10498046875,-0.786376953125,-0.3966064453125,31.94427490234375,86.8988037109375,-99.61700439453125
-1.0299072265625,-0.7735595703125,-0.46435546875,23.7579345703125,71.5179443359375,-109.9090576171875
-0.974609375,-0.6759033203125,-0.464111328125,0.54931640625,56.63299560546875,-118.3319091796875
-0.9278564453125,-0.603759765625,-0.426025390625,-27.19879150390625,40.252685546875,-125.48828125
-0.87646484375,-0.55419921875,-0.3758544921875,-48.75946044921875,27.90069580078125,-131.38580322265625
-0.8382568359375,-0.4853515625,-0.3193359375,-61.50054931640625,21.6827392578125,-134.6893310546875
-0.809326171875,-0.40478515625,-0.265869140625,-67.0166015625,19.37103271484375,-135.19287109375
-0.7745361328125,-0.3458251953125,-0.24462890625,-67.97027587890625,17.8680419921875,-133.941650390625
-0.7330322265625,-0.31982421875,-0.235595703125,-67.7947998046875,15.76995849609375,-132.87353515625
-0.699951171875,-0.352294921875,-0.23486328125,-69.25201416015625,12.7716064453125,-132.34710693359375
-0.6580810546875,-0.40087890625,-0.231689453125,-73.974609375,8.819580078125,-132.6446533203125
-0.6248779296875,-0.4521484375,-0.221923828125,-80.535888671875,4.53948974609375,-133.2244873046875
-0.6036376953125,-0.476806640625,-0.2158203125,-87.25738525390625,-0.35858154296875,-134.63592529296875
-0.58154296875,-0.48388671875,-0.19921875,-95.6573486328125,-6.05010986328125,-135.9100341796875
-0.5733642578125,-0.466552734375,-0.178955078125,-105.87310791015625,-13.275146484375,-136.57379150390625
-0.5596923828125,-0.4283447265625,-0.1549072265625,-116.02783203125,-20.56121826171875,-136.20758056640625
-0.5404052734375,-0.382568359375,-0.12841796875,-124.79400634765625,-29.45709228515625,-134.75799560546875
-0.528564453125,-0.328125,-0.0968017578125,-131.28662109375,-39.40582275390625,-132.293701171875
-0.5235595703125,-0.2784423828125,-0.0589599609375,-135.5743408203125,-48.0804443359375,-128.4332275390625
-0.5230712890625,-0.220703125,-0.026123046875,-136.8865966796875,-54.43572998046875,-122.833251953125
-0.5030517578125,-0.1734619140625,0.00244140625,-134.33837890625,-60.0128173828125,-113.68560791015625
-0.48046875,-0.136962890625,0.0252685546875,-127.5482177734375,-65.04058837890625,-103.27911376953125
-0.4500732421875,-0.1182861328125,0.0345458984375,-116.7449951171875,-70.2362060546875,-92.0562744140625
-0.4298095703125,-0.1285400390625,0.0234375,-103.0120849609375,-76.11846923828125,-80.61981201171875
-0.418212890625,-0.153076171875,-0.00244140625,-88.3636474609375,-82.16094970703125,-69.22149658203125
-0.40869140625,-0.1876220703125,-0.0401611328125,-74.4781494140625,-88.4552001953125,-58.54034423828125
-0.4007568359375,-0.2296142578125,-0.0819091796875,-61.95831298828125,-96.12274169921875,-48.98834228515625
-0.40478515625,-0.273681640625,-0.12744140625,-49.957275390625,-105.6976318359375,-40.7257080078125
-0.423828125,-0.322998046875,-0.174072265625,-37.83416748046875,-117.24853515625,-33.59222412109375
-0.458740234375,-0.37451171875,-0.223876953125,-24.65057373046875,-129.8828125,-27.70233154296875
-0.475341796875,-0.4742431640625,-0.3538818359375,-10.85662841796875,-142.5933837890625,-23.2086181640625
-0.5166015625,-0.61865234375,-0.537109375,-4.32586669921875,-152.16064453125,-21.30889892578125
-0.60107421875,-0.797607421875,-0.7713623046875,-9.521484375,-154.71649169921875,-20.69091796875
-0.717041015625,-0.99951171875,-1.0250244140625,-28.60260009765625,-148.8494873046875,-21.36993408203125
-0.8101806640625,-1.154541015625,-1.210693359375,-54.77142333984375,-133.6822509765625,-25.177001953125
-0.859130859375,-1.1983642578125,-1.2921142578125,-74.56207275390625,-112.152099609375,-32.18841552734375
-0.8514404296875,-1.1629638671875,-1.2677001953125,-85.5865478515625,-90.04974365234375,-39.74151611328125
-0.799072265625,-1.086181640625,-1.1668701171875,-92.36907958984375,-69.29779052734375,-45.89080810546875
-0.7509765625,-0.97265625,-1.025634765625,-97.66387939453125,-50.71258544921875,-49.87335205078125
-0.740966796875,-0.8182373046875,-0.8643798828125,-102.4627685546875,-35.42327880859375,-51.71966552734375
-0.76318359375,-0.646240234375,-0.7293701171875,-106.903076171875,-25.5126953125,-51.727294921875
-0.7880859375,-0.4945068359375,-0.64892578125,-110.77117919921875,-21.4385986328125,-50.13275146484375
-0.8077392578125,-0.3465576171875,-0.6170654296875,-113.037109375,-19.5770263671875,-46.71478271484375
-0.7738037109375,-0.25537109375,-0.6065673828125,-113.525390625,-17.28057861328125,-42.9229736328125
-0.7432861328125,-0.211669921875,-0.5604248046875,-110.89324951171875,-11.71875,-42.38128662109375
-0.8043212890625,-0.2491455078125,-0.49609375,-98.2818603515625,-10.15472412109375,-42.13714599609375
-0.9139404296875,-0.2501220703125,-0.41015625,-75.103759765625,-11.80267333984375,-35.40802001953125
-1.0572509765625,-0.233154296875,-0.1231689453125,-43.25103759765625,-15.37322998046875,-22.46856689453125
-1.2735595703125,-0.2899169921875,0.1383056640625,4.89044189453125,-18.53179931640625,-7.2479248046875
-1.60107421875,-0.421142578125,-0.0294189453125,52.22320556640625,-19.40155029296875,7.53021240234375
-1.7718505859375,-0.912353515625,-0.9931640625,74.127197265625,-2.72369384765625,15.89202880859375
-1.6142578125,-1.21630859375,-0.609375,56.488037109375,47.11151123046875,1.67083740234375
-1.3475341796875,-0.84619140625,-0.059326171875,53.42864990234375,64.8193359375,-15.72418212890625
-1.1859130859375,-0.2313232421875,-0.0970458984375,66.1163330078125,56.8389892578125,-24.0325927734375
-1.0614013671875,0.21533203125,-0.102294921875,63.232421875,38.0859375,-19.5159912109375
-0.8546142578125,0.2344970703125,0.2933349609375,42.449951171875,15.11383056640625,2.8228759765625
-0.7047119140625,-0.1182861328125,0.7376708984375,32.32574462890625,3.30352783203125,31.3873291015625
-0.6943359375,-0.4296875,0.8441162109375,56.732177734375,4.21142578125,50.2777099609375
-0.81640625,-0.6273193359375,0.6251220703125,93.54400634765625,3.2196044921875,59.3109130859375
-0.9710693359375,-0.7974853515625,0.3519287109375,120.880126953125,-11.932373046875,60.64605712890625
-1.0789794921875,-0.90771484375,0.089599609375,136.10076904296875,-32.8826904296875,55.96923828125
-1.0667724609375,-0.889404296875,-0.099609375,136.6729736328125,-44.67010498046875,50.13275146484375
-1.035400390625,-0.7484130859375,-0.166259765625,125.26702880859375,-45.26519775390625,45.34149169921875
-1.007080078125,-0.53369140625,-0.1669921875,109.09271240234375,-41.86248779296875,45.10498046875
-1.0106201171875,-0.304931640625,-0.1953125,96.98486328125,-39.337158203125,49.47662353515625
-1.0230712890625,-0.114501953125,-0.204345703125,91.43829345703125,-36.04888916015625,59.77630615234375
-1.0155029296875,-0.024169921875,-0.155517578125,95.00885009765625,-32.9132080078125,74.74517822265625
-0.987060546875,-0.055419921875,-0.0826416015625,110.98480224609375,-26.98516845703125,91.00341796875
-0.9395751953125,-0.171875,0.0225830078125,130.92041015625,-17.89093017578125,104.39300537109375
-0.875,-0.332763671875,0.1363525390625,149.139404296875,-9.08660888671875,112.97607421875
-0.8226318359375,-0.535400390625,0.2135009765625,163.26141357421875,-5.04302978515625,115.264892578125
-0.7843017578125,-0.7264404296875,0.23046875,167.2821044921875,-6.70623779296875,109.2529296875
-0.7371826171875,-0.8492431640625,0.1890869140625,164.3829345703125,-15.1214599609375,98.0072021484375
-0.7098388671875,-0.874755859375,0.0997314453125,159.44671630859375,-23.56719970703125,83.12225341796875
-0.6968994140625,-0.8062744140625,0.021240234375,153.14483642578125,-24.23858642578125,67.7337646484375
-0.712890625,-0.7122802734375,-0.0096435546875,144.439697265625,-19.82879638671875,55.68695068359375
-0.740234375,-0.618896484375,-0.0074462890625,132.2479248046875,-17.41790771484375,46.69189453125
-0.756591796875,-0.556640625,-0.018798828125,122.1771240234375,-16.65496826171875,42.05322265625
-0.773681640625,-0.519287109375,-0.02734375,120.91064453125,-14.15252685546875,39.764404296875
-0.788818359375,-0.5059814453125,-0.0340576171875,123.31390380859375,-11.871337890625,39.81781005859375
-0.791748046875,-0.5072021484375,-0.044189453125,127.25830078125,-11.260986328125,40.9088134765625
-0.8070068359375,-0.5308837890625,-0.0521240234375,131.38580322265625,-10.12420654296875,41.98455810546875
-0.8070068359375,-0.5821533203125,-0.0216064453125,134.0789794921875,-7.62176513671875,44.56329345703125
-0.8133544921875,-0.6395263671875,0.02001953125,134.7808837890625,-6.55364990234375,46.21124267578125
-0.8096923828125,-0.67529296875,0.06103515625,132.87353515625,-5.6915283203125,45.7000732421875
-0.81640625,-0.6951904296875,0.0672607421875,128.082275390625,-9.7503662109375,44.3115234375
-0.811279296875,-0.7042236328125,0.037109375,123.4588623046875,-16.8304443359375,43.67828369140625
-0.7965087890625,-0.7156982421875,-0.0208740234375,120.52154541015625,-25.0396728515625,43.73931884765625
-0.7769775390625,-0.7523193359375,-0.078369140625,118.67523193359375,-29.21295166015625,44.36492919921875
-0.744140625,-0.7860107421875,-0.1160888671875,117.42401123046875,-29.083251953125,44.4793701171875
-0.737548828125,-0.8175048828125,-0.147705078125,115.53955078125,-28.23638916015625,44.8150634765625
-0.7659912109375,-0.8408203125,-0.174072265625,113.10577392578125,-26.9012451171875,44.647216796875
-0.806396484375,-0.84375,-0.195556640625,108.98590087890625,-24.0325927734375,43.1671142578125
-0.842529296875,-0.8125,-0.20751953125,102.30255126953125,-18.63861083984375,40.5120849609375
-0.87255859375,-0.75732421875,-0.197509765625,95.13092041015625,-9.97161865234375,37.5518798828125
-0.886962890625,-0.707275390625,-0.193359375,88.93585205078125,-1.54876708984375,35.400390625
-0.873291015625,-0.685302734375,-0.1944580078125,82.7178955078125,5.31768798828125,34.29412841796875
-0.842041015625,-0.6904296875,-0.1773681640625,75.6988525390625,11.77978515625,33.31756591796875
-0.82421875,-0.696533203125,-0.1527099609375,68.94683837890625,16.96014404296875,31.5704345703125
-0.8333740234375,-0.699951171875,-0.1446533203125,64.53704833984375,22.04132080078125,29.38079833984375
-0.859375,-0.6929931640625,-0.146728515625,63.8275146484375,28.98406982421875,26.03912353515625
-0.868896484375,-0.7005615234375,-0.158203125,64.3157958984375,36.50665283203125,22.95684814453125
-0.883544921875,-0.7381591796875,-0.1844482421875,61.279296875,42.82379150390625,19.88983154296875
-0.894775390625,-0.788330078125,-0.1878662109375,55.2825927734375,48.77471923828125,15.9149169921875
-0.9107666015625,-0.8182373046875,-0.22265625,49.82757568359375,53.375244140625,10.3607177734375
-0.9344482421875,-0.81689453125,-0.2825927734375,45.1507568359375,58.9752197265625,4.2724609375
-0.9544677734375,-0.79541015625,-0.298095703125,36.8194580078125,67.0166015625,-1.9073486328125
-0.9617919921875,-0.758544921875,-0.2398681640625,22.76611328125,74.66888427734375,-7.57598876953125
-0.94970703125,-0.715087890625,-0.1981201171875,5.9661865234375,78.857421875,-12.21466064453125
-0.9346923828125,-0.6939697265625,-0.2054443359375,-11.23809814453125,85.0677490234375,-15.8538818359375
-0.9375,-0.6929931640625,-0.1776123046875,-26.2298583984375,97.06878662109375,-20.86639404296875
-0.98388671875,-0.66015625,-0.0888671875,-38.97857666015625,113.433837890625,-27.47344970703125
-1.0765380859375,-0.5872802734375,0.0172119140625,-53.619384765625,131.79779052734375,-34.29412841796875
-1.19287109375,-0.5015869140625,0.1412353515625,-68.4661865234375,151.46636962890625,-39.40582275390625
-1.3055419921875,-0.4412841796875,0.2171630859375,-73.02093505859375,170.562744140625,-40.58074951171875
-1.37744140625,-0.4246826171875,0.18408203125,-57.4493408203125,188.1561279296875,-39.5355224609375
-1.3818359375,-0.4481201171875,0.0594482421875,-21.5606689453125,207.794189453125,-38.78021240234375
-1.3951416015625,-0.512451171875,-0.1585693359375,22.51434326171875,231.45294189453125,-40.740966796875
-1.4019775390625,-0.5869140625,-0.3375244140625,53.28369140625,249.99237060546875,-44.31915283203125
-1.3880615234375,-0.6510009765625,-0.3197021484375,60.089111328125,249.99237060546875,-48.01177978515625
-1.2994384765625,-0.6636962890625,-0.2537841796875,60.08148193359375,249.99237060546875,-54.10003662109375
-1.2203369140625,-0.6817626953125,-0.1595458984375,48.31695556640625,228.73687744140625,-60.76812744140625
-1.0850830078125,-0.770263671875,-0.1153564453125,9.979248046875,186.5997314453125,-72.3724365234375
-0.9942626953125,-0.7763671875,-0.1229248046875,-17.425537109375,156.85272216796875,-83.1146240234375
-0.9456787109375,-0.74267578125,-0.0579833984375,-29.44183349609375,138.5345458984375,-89.447021484375
-0.871337890625,-0.6553955078125,-0.0906982421875,-29.64019775390625,120.07904052734375,-95.69549560546875
-0.79052734375,-0.5977783203125,-0.1265869140625,-33.74481201171875,104.43878173828125,-100.4791259765625
-0.73291015625,-0.5517578125,-0.1114501953125,-45.654296875,91.68243408203125,-104.16412353515625
-0.6983642578125,-0.50537109375,-0.1309814453125,-57.2509765625,77.49176025390625,-105.8349609375
-0.673095703125,-0.467041015625,-0.1473388671875,-70.831298828125,66.21551513671875,-106.08673095703125
-0.65625,-0.434326171875,-0.141845703125,-84.5184326171875,56.70166015625,-105.49163818359375
-0.65234375,-0.395751953125,-0.1336669921875,-95.367431640625,48.4161376953125,-104.88128662109375
-0.6417236328125,-0.3619384765625,-0.109375,-103.5919189453125,41.5496826171875,-101.38702392578125
-0.611328125,-0.3197021484375,-0.08447265625,-108.123779296875,33.95843505859375,-96.49658203125
-0.5816650390625,-0.279052734375,-0.0716552734375,-109.23004150390625,25.16937255859375,-90.53802490234375
-0.5516357421875,-0.2413330078125,-0.0633544921875,-108.43658447265625,16.24298095703125,-83.21380615234375
-0.5223388671875,-0.211669921875,-0.056396484375,-106.83441162109375,8.1329345703125,-74.76806640625
-0.50439453125,-0.182861328125,-0.0469970703125,-104.3548583984375,0.02288818359375,-65.338134765625
-0.4796142578125,-0.1600341796875,-0.0286865234375,-100.2655029296875,-8.3770751953125,-54.92401123046875
-0.456298828125,-0.1429443359375,-0.01123046875,-93.19305419921875,-17.67730712890625,-44.3572998046875
-0.44091796875,-0.1375732421875,-0.0059814453125,-83.1451416015625,-27.557373046875,-34.52301025390625
-0.4442138671875,-0.1556396484375,-0.02099609375,-71.37298583984375,-37.78839111328125,-25.15411376953125
-0.458740234375,-0.1785888671875,-0.0540771484375,-59.04388427734375,-47.47772216796875,-15.66314697265625
-0.4808349609375,-0.2047119140625,-0.101318359375,-46.62322998046875,-55.9539794921875,-6.0577392578125
-0.5091552734375,-0.2393798828125,-0.1622314453125,-34.24835205078125,-63.14849853515625,3.19671630859375
-0.53662109375,-0.2921142578125,-0.2327880859375,-22.77374267578125,-69.88525390625,11.13128662109375
-0.559814453125,-0.3551025390625,-0.3089599609375,-13.16070556640625,-76.83563232421875,17.00592041015625
-0.568359375,-0.419189453125,-0.38525390625,-5.45501708984375,-83.54949951171875,21.209716796875
-0.571533203125,-0.4803466796875,-0.4547119140625,1.09100341796875,-88.56201171875,24.33013916015625
-0.5645751953125,-0.5341796875,-0.5166015625,8.24737548828125,-91.7510986328125,26.66473388671875
-0.5704345703125,-0.6065673828125,-0.5650634765625,15.1824951171875,-93.536376953125,27.93121337890625
-0.5841064453125,-0.70654296875,-0.6051025390625,20.31707763671875,-95.14617919921875,28.16009521484375
-0.599365234375,-0.8470458984375,-0.6785888671875,23.468017578125,-95.16143798828125,26.7486572265625
-0.638671875,-1.004150390625,-0.7747802734375,20.33233642578125,-91.7205810546875,21.32415771484375
-0.6768798828125,-1.1129150390625,-0.827880859375,9.33837890625,-84.70916748046875,13.06915283203125
-0.6885986328125,-1.1123046875,-0.8392333984375,-4.7454833984375,-75.6988525390625,2.2125244140625
-0.684814453125,-1.0589599609375,-0.8115234375,-18.82171630859375,-65.72723388671875,-10.20050048828125
-0.6636962890625,-0.9906005859375,-0.74951171875,-29.78515625,-55.38177490234375,-22.15576171875
-0.63330078125,-0.9132080078125,-0.6871337890625,-34.79766845703125,-44.86083984375,-32.379150390625
-0.5986328125,-0.825439453125,-0.642333984375,-35.20965576171875,-34.78240966796875,-39.80255126953125
-0.559814453125,-0.742431640625,-0.62060546875,-34.3780517578125,-26.34429931640625,-43.93768310546875
-0.5244140625,-0.6871337890625,-0.5989990234375,-37.59765625,-19.69146728515625,-44.85321044921875
-0.50830078125,-0.6497802734375,-0.535400390625,-46.16546630859375,-14.33563232421875,-43.00689697265625
-0.4862060546875,-0.616455078125,-0.4156494140625,-55.2978515625,-12.16888427734375,-40.56549072265625
-0.455810546875,-0.5777587890625,-0.260986328125,-58.5784912109375,-14.77813720703125,-38.482666015625
-0.458251953125,-0.5311279296875,-0.11328125,-51.97906494140625,-21.47674560546875,-36.3616943359375
-0.5631103515625,-0.4810791015625,-0.024169921875,-37.45269775390625,-30.9295654296875,-32.470703125
-0.7728271484375,-0.473876953125,-0.09326171875,-21.08001708984375,-40.50445556640625,-23.92578125
-1.019287109375,-0.63720703125,-0.3050537109375,-14.03045654296875,-45.8984375,-12.7716064453125
-1.2698974609375,-1.0181884765625,-0.4114990234375,-17.09747314453125,-48.43902587890625,-7.68280029296875
-1.3095703125,-1.140625,-0.0606689453125,-20.9808349609375,-29.80804443359375,-16.09039306640625
-1.22216796875,-0.85986328125,0.2037353515625,-21.09527587890625,-10.74981689453125,-36.19384765625
-1.2041015625,-0.5076904296875,-0.03564453125,-21.32415771484375,-29.144287109375,-53.93218994140625
-1.2728271484375,0.1129150390625,-0.5791015625,-26.5350341796875,-58.868408203125,-64.8193359375
-1.2615966796875,0.6856689453125,-0.482177734375,-41.83197021484375,-70.18280029296875,-59.08966064453125
-1.2060546875,0.9393310546875,-0.187744140625,-49.4384765625,-71.9146728515625,-25.30670166015625
-1.2037353515625,0.785888671875,0.1488037109375,-61.0198974609375,-77.9266357421875,16.4031982421875
-1.176025390625,0.2879638671875,0.3973388671875,-66.8487548828125,-76.74407958984375,57.51800537109375
-1.1563720703125,-0.2432861328125,0.4110107421875,-46.0357666015625,-72.18170166015625,84.51080322265625
-1.1544189453125,-0.5819091796875,0.2216796875,-15.92254638671875,-69.43511962890625,91.2628173828125
-1.1163330078125,-0.7786865234375,0.0224609375,-6.7138671875,-68.91632080078125,85.09063720703125
-1.083984375,-0.8521728515625,-0.0968017578125,-10.7574462890625,-67.9473876953125,70.9228515625
-1.0345458984375,-0.828857421875,-0.14501953125,-9.46807861328125,-62.27874755859375,54.443359375
-0.9833984375,-0.7281494140625,-0.1490478515625,-2.37274169921875,-54.92401123046875,40.2984619140625
-0.9556884765625,-0.5654296875,-0.161376953125,6.1798095703125,-48.0499267578125,31.44073486328125
-0.95361328125,-0.395751953125,-0.1656494140625,11.65771484375,-43.63250732421875,28.4576416015625
-0.9500732421875,-0.2816162109375,-0.15283203125,14.73236083984375,-41.2445068359375,31.21185302734375
-0.939208984375,-0.2698974609375,-0.1300048828125,16.1285400390625,-40.771484375,37.017822265625
-0.9287109375,-0.3575439453125,-0.1146240234375,16.54815673828125,-42.50335693359375,42.724609375
-0.906494140625,-0.478759765625,-0.1239013671875,17.57049560546875,-45.2728271484375,45.41778564453125
-0.8636474609375,-0.573974609375,-0.1444091796875,19.22607421875,-47.20306396484375,44.1741943359375
-0.8304443359375,-0.6109619140625,-0.1796875,21.41571044921875,-45.71533203125,39.5355224609375
-0.816650390625,-0.586669921875,-0.1956787109375,22.94158935546875,-41.07666015625,32.6080322265625
-0.8072509765625,-0.541259765625,-0.2095947265625,24.5819091796875,-36.590576171875,26.763916015625
-0.8060302734375,-0.483642578125,-0.2293701171875,25.76446533203125,-32.92083740234375,22.2625732421875
-0.807861328125,-0.43994140625,-0.25390625,25.73394775390625,-30.66253662109375,19.1192626953125
-0.801025390625,-0.43212890625,-0.2763671875,23.85711669921875,-29.48760986328125,17.08984375
-0.792724609375,-0.453857421875,-0.2884521484375,21.98028564453125,-28.20587158203125,16.25823974609375
-0.7879638671875,-0.4989013671875,-0.2989501953125,21.78192138671875,-26.0467529296875,15.96832275390625
-0.790771484375,-0.5389404296875,-0.300537109375,21.38519287109375,-23.49853515625,15.31219482421875
-0.7945556640625,-0.5655517578125,-0.2947998046875,20.050048828125,-21.1181640625,14.38140869140625
-0.802490234375,-0.5797119140625,-0.2777099609375,17.486572265625,-18.69964599609375,13.4124755859375
-0.812255859375,-0.58935546875,-0.244140625,14.04571533203125,-16.01409912109375,12.68768310546875
-0.8243408203125,-0.589599609375,-0.2037353515625,10.84136962890625,-13.72528076171875,11.94000244140625
-0.833740234375,-0.57958984375,-0.1724853515625,8.35418701171875,-12.91656494140625,11.138916015625
-0.83447265625,-0.576904296875,-0.15625,6.65283203125,-13.3819580078125,10.87188720703125
-0.8338623046875,-0.5703125,-0.152587890625,5.82122802734375,-14.36614990234375,10.8795166015625
-0.8367919921875,-0.544189453125,-0.1544189453125,5.7525634765625,-14.46533203125,11.31439208984375
-0.8360595703125,-0.5382080078125,-0.140625,6.11114501953125,-13.671875,12.24517822265625
-0.832763671875,-0.5452880859375,-0.1138916015625,4.913330078125,-12.96234130859375,13.1683349609375
-0.83349609375,-0.541015625,-0.0986328125,4.1656494140625,-13.08441162109375,13.5345458984375
-0.837890625,-0.5313720703125,-0.0924072265625,4.78363037109375,-13.48114013671875,13.5955810546875
-0.84326171875,-0.5096435546875,-0.1016845703125,6.84356689453125,-14.190673828125,13.78631591796875
-0.8419189453125,-0.490234375,-0.1119384765625,8.758544921875,-14.80865478515625,14.3280029296875
-0.836669921875,-0.4722900390625,-0.114990234375,10.2386474609375,-14.97650146484375,15.12908935546875
-0.8271484375,-0.463623046875,-0.1162109375,11.7034912109375,-14.9993896484375,16.2506103515625
-0.8165283203125,-0.4505615234375,-0.12353515625,13.763427734375,-15.0604248046875,17.5933837890625
-0.8087158203125,-0.4403076171875,-0.1407470703125,15.9912109375,-15.8233642578125,19.34051513671875
-0.805419921875,-0.4383544921875,-0.1651611328125,18.01300048828125,-16.74652099609375,21.728515625
-0.8040771484375,-0.447509765625,-0.1817626953125,19.61517333984375,-17.00592041015625,24.7344970703125
-0.8048095703125,-0.4678955078125,-0.1800537109375,20.8892822265625,-16.5863037109375,27.9388427734375
-0.8050537109375,-0.4937744140625,-0.157958984375,21.69036865234375,-15.73944091796875,30.76171875
-0.80712890625,-0.515869140625,-0.12646484375,22.430419921875,-15.0604248046875,32.84454345703125
-0.8114013671875,-0.53564453125,-0.1048583984375,23.27728271484375,-15.11383056640625,34.1644287109375
-0.817626953125,-0.5555419921875,-0.0963134765625,23.59771728515625,-15.7623291015625,35.05706787109375
-0.822265625,-0.5684814453125,-0.10009765625,23.2086181640625,-16.33453369140625,35.4766845703125
-0.8328857421875,-0.582275390625,-0.10888671875,22.0489501953125,-16.6473388671875,35.491943359375
-0.8326416015625,-0.6165771484375,-0.1119384765625,19.3328857421875,-16.510009765625,35.4766845703125
-0.8289794921875,-0.64697265625,-0.1103515625,15.89202880859375,-16.76177978515625,34.69085693359375
-0.825927734375,-0.675048828125,-0.1160888671875,12.63427734375,-17.11273193359375,33.28704833984375
-0.8201904296875,-0.6986083984375,-0.120361328125,8.65936279296875,-17.303466796875,31.8603515625
-0.8173828125,-0.7252197265625,-0.136962890625,4.53948974609375,-17.8985595703125,30.609130859375
-0.8231201171875,-0.740234375,-0.175048828125,-0.38909912109375,-18.98956298828125,29.50286865234375
-0.8294677734375,-0.7698974609375,-0.218994140625,-6.34002685546875,-19.0277099609375,28.98406982421875
-0.8319091796875,-0.8084716796875,-0.2547607421875,-11.7340087890625,-17.70782470703125,28.8238525390625
-0.8348388671875,-0.8482666015625,-0.27197265625,-15.411376953125,-14.54925537109375,29.1900634765625
-0.84716796875,-0.88525390625,-0.271728515625,-16.99066162109375,-10.9100341796875,28.7322998046875
-0.86083984375,-0.897216796875,-0.27294921875,-17.791748046875,-7.69805908203125,27.19879150390625
-0.8704833984375,-0.8839111328125,-0.2647705078125,-21.49200439453125,-5.43212890625,24.2462158203125
-0.8734130859375,-0.857666015625,-0.262451171875,-29.3426513671875,-5.2490234375,19.866943359375
-0.8731689453125,-0.834716796875,-0.297607421875,-39.43634033203125,-7.07244873046875,14.7705078125
-0.8770751953125,-0.7906494140625,-0.3472900390625,-49.93438720703125,-7.354736328125,9.31549072265625
-0.8870849609375,-0.745361328125,-0.3863525390625,-59.0667724609375,-4.32586669921875,4.44793701171875
-0.885498046875,-0.7276611328125,-0.4091796875,-67.03948974609375,2.1514892578125,0.06103515625
-0.888427734375,-0.7098388671875,-0.425048828125,-74.3255615234375,11.34490966796875,-4.974365234375
-0.89404296875,-0.6815185546875,-0.43701171875,-79.26177978515625,23.62823486328125,-10.30731201171875
-0.8980712890625,-0.6353759765625,-0.4398193359375,-79.64324951171875,38.6199951171875,-16.47186279296875
-0.91064453125,-0.5887451171875,-0.4388427734375,-73.82965087890625,54.1534423828125,-23.58245849609375
-0.9429931640625,-0.5562744140625,-0.4051513671875,-63.05694580078125,71.57135009765625,-31.25
-0.9779052734375,-0.53564453125,-0.3365478515625,-49.4537353515625,90.728759765625,-39.12353515625
-1.0457763671875,-0.509765625,-0.28759765625,-32.53173828125,110.61859130859375,-48.5076904296875
-1.1119384765625,-0.50927734375,-0.2554931640625,-12.36724853515625,131.89697265625,-58.15887451171875
-1.180419921875,-0.5135498046875,-0.19189453125,5.828857421875,149.71923828125,-66.6351318359375
-1.1815185546875,-0.531982421875,-0.1435546875,20.80535888671875,156.9671630859375,-72.601318359375
-1.17138671875,-0.5396728515625,-0.1365966796875,31.18133544921875,153.7017822265625,-78.2318115234375
-1.156982421875,-0.5189208984375,-0.1390380859375,37.29248046875,142.53997802734375,-86.334228515625
-1.135986328125,-0.4879150390625,-0.141357421875,32.9437255859375,120.10955810546875,-96.27532958984375
-1.0179443359375,-0.5740966796875,-0.20556640625,12.82501220703125,89.8284912109375,-104.20989990234375
-0.99365234375,-0.5791015625,-0.2503662109375,-8.59832763671875,71.7926025390625,-112.78533935546875
-1.0040283203125,-0.550048828125,-0.2578125,-24.58953857421875,61.676025390625,-120.6817626953125
-0.9744873046875,-0.5380859375,-0.2508544921875,-35.82000732421875,53.03955078125,-127.9449462890625
-0.9072265625,-0.540283203125,-0.2530517578125,-43.34259033203125,46.173095703125,-133.00323486328125
-0.845947265625,-0.561767578125,-0.265869140625,-48.36273193359375,43.23577880859375,-135.50567626953125
-0.786865234375,-0.58349609375,-0.2734375,-54.7332763671875,40.16876220703125,-137.47406005859375
-0.7574462890625,-0.596435546875,-0.2630615234375,-62.46185302734375,36.285400390625,-139.7247314453125
-0.7265625,-0.59716796875,-0.245361328125,-70.42694091796875,32.72247314453125,-141.4031982421875
-0.7236328125,-0.5960693359375,-0.2215576171875,-77.85797119140625,29.72412109375,-142.4407958984375
-0.73583984375,-0.5765380859375,-0.197265625,-83.8775634765625,26.06201171875,-143.11981201171875
-0.743408203125,-0.5526123046875,-0.1810302734375,-89.17999267578125,19.55413818359375,-144.6075439453125
-0.7606201171875,-0.51123046875,-0.1636962890625,-94.818115234375,11.8560791015625,-145.9808349609375
-0.7615966796875,-0.4482421875,-0.1483154296875,-100.9521484375,4.0435791015625,-145.57647705078125
-0.7354736328125,-0.3712158203125,-0.1279296875,-106.23931884765625,-3.79180908203125,-143.1884765625
-0.71044921875,-0.3056640625,-0.12158203125,-109.29107666015625,-11.260986328125,-138.26751708984375
-0.6805419921875,-0.2435302734375,-0.114501953125,-110.41259765625,-16.38031005859375,-130.7830810546875
-0.6473388671875,-0.190673828125,-0.1099853515625,-109.35211181640625,-20.31707763671875,-121.3226318359375
-0.60986328125,-0.1436767578125,-0.1083984375,-105.04913330078125,-24.58953857421875,-110.90850830078125
-0.57666015625,-0.1107177734375,-0.104248046875,-96.86279296875,-29.30450439453125,-99.61700439453125
-0.53759765625,-0.0975341796875,-0.1060791015625,-85.5255126953125,-35.2020263671875,-87.677001953125
-0.4908447265625,-0.1099853515625,-0.11376953125,-72.662353515625,-42.4652099609375,-75.0579833984375
-0.4483642578125,-0.1490478515625,-0.1298828125,-59.41009521484375,-50.77362060546875,-62.2406005859375
-0.4066162109375,-0.191650390625,-0.153076171875,-46.71478271484375,-60.17303466796875,-49.6368408203125
-0.3658447265625,-0.2305908203125,-0.1820068359375,-34.95025634765625,-70.6024169921875,-37.45269775390625
-0.330810546875,-0.2652587890625,-0.2166748046875,-23.712158203125,-81.07757568359375,-25.18463134765625
-0.3192138671875,-0.2938232421875,-0.2540283203125,-12.32147216796875,-89.79034423828125,-12.3291015625
-0.32177734375,-0.332763671875,-0.316162109375,-0.37384033203125,-96.21429443359375,0.0762939453125
-0.33251953125,-0.4180908203125,-0.4058837890625,10.04791259765625,-101.09710693359375,10.13946533203125
-0.350341796875,-0.5694580078125,-0.5506591796875,16.4337158203125,-105.35430908203125,16.45660400390625
-0.3812255859375,-0.770263671875,-0.767333984375,14.6331787109375,-110.05401611328125,18.11981201171875
-0.433837890625,-1.01416015625,-0.98388671875,1.97601318359375,-112.396240234375,15.76995849609375
-0.4835205078125,-1.2509765625,-1.1505126953125,-17.00592041015625,-108.22296142578125,10.62774658203125
-0.495849609375,-1.38134765625,-1.2288818359375,-36.9720458984375,-94.207763671875,1.96075439453125
-0.472412109375,-1.3973388671875,-1.1942138671875,-55.6640625,-73.42529296875,-10.345458984375
-0.440185546875,-1.3272705078125,-1.0634765625,-68.48907470703125,-54.7943115234375,-25.01678466796875
-0.4051513671875,-1.196533203125,-0.904541015625,-74.15771484375,-43.41888427734375,-39.520263671875
-0.3563232421875,-1.057861328125,-0.7862548828125,-75.43182373046875,-37.506103515625,-51.79595947265625
-0.2801513671875,-0.9510498046875,-0.7425537109375,-74.95880126953125,-32.70721435546875,-60.943603515625
-0.2392578125,-0.8909912109375,-0.683349609375,-74.33319091796875,-26.153564453125,-66.45965576171875
-0.3055419921875,-0.8209228515625,-0.5731201171875,-67.93975830078125,-14.82391357421875,-67.8253173828125
-0.5064697265625,-0.68359375,-0.502685546875,-52.97088623046875,-5.0506591796875,-65.11688232421875
-0.8026123046875,-0.4833984375,-0.2978515625,-35.0494384765625,-4.39453125,-56.8389892578125
-1.2298583984375,-0.263427734375,-0.1038818359375,-10.009765625,-3.204345703125,-39.28375244140625
-1.7679443359375,-0.091552734375,-0.497314453125,7.34710693359375,2.34222412109375,-14.48822021484375
-1.934814453125,-0.408447265625,-0.9703369140625,-16.754150390625,4.38690185546875,4.5166015625
-1.647216796875,-0.8724365234375,-0.55712890625,-31.82220458984375,18.2037353515625,-2.03704833984375
-1.27734375,-0.6666259765625,-0.2093505859375,-1.01470947265625,27.61077880859375,-13.71002197265625
-1.1129150390625,-0.1326904296875,-0.2977294921875,28.69415283203125,22.37701416015625,-8.48388671875
-1.035888671875,0.29345703125,-0.1038818359375,26.6265869140625,12.93182373046875,3.99017333984375
-0.8583984375,0.179931640625,0.3411865234375,11.16180419921875,-4.32586669921875,32.196044921875
-0.7205810546875,-0.188720703125,0.6490478515625,21.04949951171875,-7.26318359375,64.8345947265625
-0.74951171875,-0.463134765625,0.6806640625,53.62701416015625,8.0718994140625,88.6383056640625
-0.8994140625,-0.7220458984375,0.51611328125,83.30535888671875,15.6402587890625,97.16796875
-1.0347900390625,-0.9803466796875,0.31103515625,100.2960205078125,0.45013427734375,92.10968017578125
-1.042724609375,-1.1646728515625,0.1595458984375,101.38702392578125,-22.03369140625,81.68792724609375
-1.0018310546875,-1.152099609375,0.0859375,93.3074951171875,-37.9638671875,69.3817138671875
-0.9649658203125,-0.9869384765625,0.052001953125,84.747314453125,-42.54913330078125,60.12725830078125
-0.9549560546875,-0.7640380859375,0.0145263671875,73.6846923828125,-43.27392578125,55.80902099609375
-0.98583984375,-0.5458984375,-0.0511474609375,60.24169921875,-45.4254150390625,54.96978759765625
-1.0135498046875,-0.3526611328125,-0.1141357421875,48.4619140625,-49.69024658203125,57.43408203125
-1.0191650390625,-0.205810546875,-0.141845703125,39.57366943359375,-55.22918701171875,62.76702880859375
-0.9932861328125,-0.1358642578125,-0.1466064453125,36.865234375,-58.8531494140625,71.86126708984375
-0.959716796875,-0.1588134765625,-0.123046875,40.924072265625,-57.02972412109375,82.54241943359375
-0.9227294921875,-0.251708984375,-0.0830078125,48.9044189453125,-54.08477783203125,89.9810791015625
-0.8980712890625,-0.407470703125,-0.07275390625,57.22808837890625,-51.483154296875,92.254638671875
-0.8482666015625,-0.570068359375,-0.052001953125,57.708740234375,-52.7191162109375,90.02685546875
-0.7696533203125,-0.6729736328125,-0.04443359375,51.055908203125,-60.46295166015625,81.85577392578125
-0.7032470703125,-0.7025146484375,-0.0526123046875,44.5098876953125,-64.78118896484375,71.49505615234375
-0.69482421875,-0.6649169921875,-0.0340576171875,40.863037109375,-63.24005126953125,59.112548828125
-0.7208251953125,-0.5987548828125,-0.0518798828125,43.47991943359375,-60.11199951171875,48.30169677734375
-0.75390625,-0.5220947265625,-0.0938720703125,47.79052734375,-54.83245849609375,41.4581298828125
-0.784423828125,-0.46533203125,-0.1075439453125,51.36871337890625,-49.11041259765625,39.14642333984375
-0.82421875,-0.4552001953125,-0.10400390625,53.88641357421875,-43.06793212890625,38.47503662109375
-0.8533935546875,-0.449462890625,-0.090087890625,57.25860595703125,-37.994384765625,37.90283203125
-0.8712158203125,-0.4346923828125,-0.112548828125,61.3861083984375,-35.85052490234375,38.63525390625
-0.8758544921875,-0.4417724609375,-0.1527099609375,65.07110595703125,-33.966064453125,40.191650390625
-0.8614501953125,-0.47119140625,-0.165283203125,66.07818603515625,-31.0516357421875,41.961669921875
-0.8424072265625,-0.5318603515625,-0.1673583984375,65.28472900390625,-28.961181640625,44.54803466796875
-0.8232421875,-0.5938720703125,-0.17431640625,64.422607421875,-26.2298583984375,47.1649169921875
-0.8126220703125,-0.6397705078125,-0.1610107421875,62.93487548828125,-22.40753173828125,48.3856201171875
-0.822509765625,-0.6546630859375,-0.1522216796875,62.652587890625,-19.75250244140625,48.17962646484375
-0.842529296875,-0.6240234375,-0.169677734375,63.94195556640625,-18.44024658203125,46.6461181640625
-0.8446044921875,-0.5699462890625,-0.2127685546875,65.6585693359375,-18.27239990234375,44.9676513671875
-0.8408203125,-0.5347900390625,-0.2669677734375,66.36810302734375,-18.37158203125,43.80035400390625
-0.7940673828125,-0.5504150390625,-0.3114013671875,67.05474853515625,-16.9219970703125,43.8232421875
-0.7418212890625,-0.6229248046875,-0.3489990234375,68.65692138671875,-15.72418212890625,44.5709228515625
-0.69775390625,-0.7301025390625,-0.3851318359375,70.97625732421875,-12.29095458984375,44.67010498046875
-0.6656494140625,-0.8221435546875,-0.3905029296875,72.21221923828125,-4.94384765625,42.96112060546875
-0.655029296875,-0.872802734375,-0.35595703125,71.044921875,4.05120849609375,39.54315185546875
-0.663330078125,-0.8970947265625,-0.3028564453125,67.5506591796875,12.64190673828125,34.820556640625
-0.6925048828125,-0.913330078125,-0.2452392578125,60.79864501953125,19.03533935546875,29.56390380859375
-0.723388671875,-0.9150390625,-0.198486328125,50.28533935546875,20.27130126953125,24.993896484375
-0.746337890625,-0.93310546875,-0.20556640625,37.7960205078125,15.7318115234375,21.728515625
-0.751953125,-0.9622802734375,-0.2637939453125,25.24566650390625,8.8958740234375,18.89801025390625
-0.7589111328125,-0.9783935546875,-0.3331298828125,12.75634765625,3.41033935546875,15.55633544921875
-0.764892578125,-0.9781494140625,-0.3876953125,0.9918212890625,3.021240234375,11.72637939453125
-0.7750244140625,-0.963623046875,-0.424072265625,-9.1552734375,6.72149658203125,6.88934326171875
-0.806640625,-0.9154052734375,-0.419189453125,-17.95196533203125,13.336181640625,0.83160400390625
-0.8153076171875,-0.836669921875,-0.40283203125,-26.2603759765625,17.852783203125,-5.218505859375
-0.8026123046875,-0.7459716796875,-0.3997802734375,-35.7818603515625,22.01080322265625,-10.162353515625
-0.78955078125,-0.6549072265625,-0.404541015625,-47.52349853515625,26.67236328125,-13.7481689453125
-0.7825927734375,-0.6109619140625,-0.3984375,-60.97412109375,32.23419189453125,-15.31219482421875
-0.7989501953125,-0.621337890625,-0.36279296875,-74.493408203125,40.863037109375,-16.11328125
-0.8592529296875,-0.6602783203125,-0.287841796875,-87.65411376953125,53.6651611328125,-18.85986328125
-0.958251953125,-0.7017822265625,-0.185546875,-100.85296630859375,68.39752197265625,-24.871826171875
-1.04296875,-0.7164306640625,-0.074951171875,-111.26708984375,83.953857421875,-32.16552734375
-1.146240234375,-0.6998291015625,0.012939453125,-115.3106689453125,97.900390625,-40.21453857421875
-1.2423095703125,-0.660400390625,0.0648193359375,-107.177734375,111.70196533203125,-46.95892333984375
-1.3165283203125,-0.6314697265625,0.07080078125,-89.996337890625,122.16949462890625,-49.58343505859375
-1.347900390625,-0.648193359375,0.0013427734375,-67.0928955078125,131.500244140625,-50.0335693359375
-1.37255859375,-0.6429443359375,-0.1690673828125,-39.74151611328125,142.53997802734375,-53.39813232421875
-1.3885498046875,-0.5853271484375,-0.317626953125,-23.0255126953125,150.054931640625,-56.4727783203125
-1.377685546875,-0.517822265625,-0.3541259765625,-22.72796630859375,152.8472900390625,-58.2427978515625
-1.3330078125,-0.4644775390625,-0.28564453125,-35.53009033203125,146.270751953125,-59.30328369140625
-1.2525634765625,-0.508056640625,-0.1904296875,-53.76434326171875,128.2501220703125,-61.19537353515625
-1.1314697265625,-0.5875244140625,-0.150390625,-70.56427001953125,105.82733154296875,-67.0928955078125
-1.0369873046875,-0.631591796875,-0.141845703125,-78.6590576171875,89.82086181640625,-73.1048583984375
-0.97314453125,-0.64111328125,-0.143310546875,-81.9244384765625,78.033447265625,-80.42144775390625
-0.9068603515625,-0.6270751953125,-0.1505126953125,-84.38873291015625,68.8934326171875,-87.53204345703125
-0.84619140625,-0.6051025390625,-0.1505126953125,-88.11187744140625,62.225341796875,-93.48297119140625
-0.8055419921875,-0.5677490234375,-0.129150390625,-92.193603515625,57.3883056640625,-98.96087646484375
-0.771728515625,-0.5323486328125,-0.124267578125,-94.54345703125,51.7120361328125,-102.85186767578125
-0.735595703125,-0.50390625,-0.1156005859375,-97.34344482421875,45.93658447265625,-106.23931884765625
-0.7001953125,-0.478271484375,-0.0933837890625,-100.24261474609375,38.9556884765625,-108.54339599609375
-0.6673583984375,-0.446044921875,-0.08154296875,-101.75323486328125,32.35626220703125,-110.06927490234375
-0.64794921875,-0.4178466796875,-0.07373046875,-103.2867431640625,26.824951171875,-110.0006103515625
-0.62841796875,-0.37451171875,-0.068115234375,-105.03387451171875,21.91162109375,-109.00115966796875
-0.6121826171875,-0.31787109375,-0.0601806640625,-106.57501220703125,17.5018310546875,-107.27691650390625
-0.6234130859375,-0.2734375,-0.05419921875,-107.330322265625,12.3748779296875,-103.55377197265625
-0.587890625,-0.21240234375,-0.033935546875,-106.4300537109375,6.8511962890625,-97.47314453125
-0.580810546875,-0.148193359375,-0.0308837890625,-101.715087890625,1.12152099609375,-92.59033203125
-0.5716552734375,-0.1007080078125,-0.01416015625,-93.597412109375,-4.180908203125,-85.25848388671875
-0.5350341796875,-0.062255859375,-0.001953125,-80.54351806640625,-9.05609130859375,-76.95770263671875
-0.4989013671875,-0.0343017578125,-0.005126953125,-63.04931640625,-12.99285888671875,-68.115234375
-0.4691162109375,-0.013427734375,-0.0194091796875,-42.48046875,-16.4031982421875,-58.6700439453125
-0.448974609375,0.0103759765625,-0.04150390625,-19.3939208984375,-19.27947998046875,-47.8363037109375
-0.4464111328125,0.0184326171875,-0.08056640625,4.93621826171875,-22.33123779296875,-34.6832275390625
-0.45458984375,-0.0047607421875,-0.14794921875,28.3966064453125,-26.22222900390625,-20.10345458984375
-0.46728515625,-0.067138671875,-0.24755859375,47.95074462890625,-30.029296875,-5.4931640625
-0.4769287109375,-0.16455078125,-0.3447265625,60.5316162109375,-32.28759765625,7.843017578125
-0.489013671875,-0.2703857421875,-0.427978515625,67.0318603515625,-33.63037109375,18.9666748046875
-0.496826171875,-0.3482666015625,-0.4993896484375,69.6258544921875,-34.881591796875,27.984619140625
-0.50341796875,-0.385498046875,-0.5576171875,70.47271728515625,-34.8663330078125,35.552978515625
-0.5201416015625,-0.3876953125,-0.5892333984375,71.3653564453125,-31.60858154296875,43.02978515625
-0.55419921875,-0.376953125,-0.5943603515625,71.8841552734375,-25.97808837890625,51.17034912109375
-0.6063232421875,-0.38232421875,-0.5792236328125,70.648193359375,-20.25604248046875,59.18121337890625
-0.6622314453125,-0.410888671875,-0.560302734375,66.39862060546875,-17.120361328125,65.78826904296875
-0.697021484375,-0.45556640625,-0.5408935546875,59.97467041015625,-18.4478759765625,70.281982421875
-0.7032470703125,-0.5008544921875,-0.530029296875,53.65753173828125,-24.8260498046875,72.5250244140625
-0.681396484375,-0.53759765625,-0.513427734375,49.8046875,-34.11865234375,72.92938232421875
-0.64453125,-0.5771484375,-0.4822998046875,50.3692626953125,-42.938232421875,71.7315673828125
-0.6004638671875,-0.6317138671875,-0.4638671875,56.4117431640625,-49.61395263671875,69.37408447265625
-0.5523681640625,-0.70068359375,-0.4661865234375,65.6280517578125,-52.83355712890625,66.4215087890625
-0.5111083984375,-0.7691650390625,-0.49951171875,76.5533447265625,-51.70440673828125,62.5762939453125
-0.473876953125,-0.822509765625,-0.539306640625,85.601806640625,-47.85919189453125,57.6934814453125
-0.434814453125,-0.842529296875,-0.540283203125,90.30914306640625,-42.1600341796875,51.7120361328125
-0.395263671875,-0.8218994140625,-0.49609375,92.33856201171875,-34.93499755859375,45.2880859375
-0.35302734375,-0.7564697265625,-0.41552734375,95.48187255859375,-26.8096923828125,38.6810302734375
-0.320556640625,-0.651611328125,-0.3031005859375,102.60009765625,-19.21844482421875,32.21893310546875
-0.314697265625,-0.517333984375,-0.1905517578125,113.4033203125,-12.3138427734375,28.4271240234375
-0.3428955078125,-0.391845703125,-0.119384765625,123.7640380859375,-5.68389892578125,28.839111328125
-0.427001953125,-0.294677734375,-0.0994873046875,128.44085693359375,2.12860107421875,34.027099609375
-0.5355224609375,-0.213623046875,-0.1041259765625,119.62890625,12.0697021484375,42.8619384765625
-0.7054443359375,-0.1607666015625,-0.1268310546875,96.3287353515625,16.34979248046875,49.84283447265625
-0.910888671875,-0.1455078125,-0.2103271484375,67.962646484375,6.317138671875,51.71966552734375
-1.0650634765625,-0.1793212890625,-0.3043212890625,41.229248046875,-17.51708984375,47.90496826171875
-1.161865234375,-0.2515869140625,-0.378662109375,25.15411376953125,-39.25323486328125,41.11480712890625
-1.184814453125,-0.2978515625,-0.4027099609375,24.57427978515625,-44.12078857421875,36.376953125
-1.171142578125,-0.3209228515625,-0.392822265625,36.00311279296875,-31.91375732421875,35.369873046875
-1.1558837890625,-0.3377685546875,-0.3179931640625,52.825927734375,-9.26971435546875,37.59765625
-1.1356201171875,-0.36865234375,-0.1181640625,65.7501220703125,11.49749755859375,41.46575927734375
-1.125244140625,-0.433349609375,0.1112060546875,70.1446533203125,21.43096923828125,45.05157470703125
-1.1312255859375,-0.5557861328125,0.2991943359375,65.10162353515625,21.55303955078125,47.149658203125
-1.1336669921875,-0.6990966796875,0.4193115234375,54.443359375,9.82666015625,47.11151123046875
-1.123046875,-0.8734130859375,0.4268798828125,52.7191162109375,-10.8184814453125,45.70770263671875
-1.137451171875,-1.0404052734375,0.2930908203125,70.01495361328125,-34.1949462890625,41.3360595703125
-1.182373046875,-1.09912109375,0.064208984375,95.46661376953125,-53.5736083984375,35.25543212890625
-1.2347412109375,-1.0535888671875,-0.1817626953125,107.36083984375,-68.0389404296875,29.9224853515625
-1.2896728515625,-0.8919677734375,-0.3375244140625,96.221923828125,-75.72174072265625,24.37591552734375
-1.3499755859375,-0.7000732421875,-0.3795166015625,77.06451416015625,-74.62310791015625,23.41461181640625
-1.377197265625,-0.572021484375,-0.4342041015625,61.19537353515625,-69.915771484375,26.79443359375
-1.4036865234375,-0.489013671875,-0.4100341796875,45.02105712890625,-61.50054931640625,32.65380859375
-1.40185546875,-0.4930419921875,-0.2315673828125,30.7769775390625,-53.88641357421875,41.60308837890625
-1.37158203125,-0.6220703125,-0.0509033203125,30.03692626953125,-52.55126953125,53.1158447265625
-1.27587890625,-0.79443359375,-0.0155029296875,42.2821044921875,-59.0362548828125,63.7969970703125
-1.147705078125,-0.9725341796875,-0.0919189453125,59.5245361328125,-62.30926513671875,69.6868896484375
-1.0252685546875,-1.061279296875,-0.1834716796875,70.6939697265625,-59.18121337890625,68.62640380859375
-0.9677734375,-1.0794677734375,-0.238037109375,71.8994140625,-52.08587646484375,63.92669677734375
-0.9322509765625,-1.0345458984375,-0.2386474609375,67.32177734375,-45.654296875,56.3507080078125
-0.8961181640625,-0.9832763671875,-0.247314453125,64.63623046875,-42.0989990234375,49.62158203125
-0.8494873046875,-0.91259765625,-0.2734375,62.41607666015625,-39.51263427734375,45.00579833984375
-0.813232421875,-0.8541259765625,-0.29443359375,59.56268310546875,-36.92626953125,42.938232421875
-0.7664794921875,-0.822265625,-0.346923828125,57.82318115234375,-36.102294921875,42.7093505859375
-0.7236328125,-0.789794921875,-0.3846435546875,55.68695068359375,-35.40802001953125,43.121337890625
-0.693603515625,-0.7529296875,-0.4439697265625,53.15399169921875,-36.56768798828125,43.4112548828125
-0.6676025390625,-0.7010498046875,-0.5078125,49.102783203125,-36.85760498046875,43.63250732421875
-0.6368408203125,-0.63916015625,-0.5411376953125,40.8935546875,-34.15679931640625,43.92242431640625
-0.590087890625,-0.5897216796875,-0.525146484375,29.57916259765625,-28.5797119140625,44.3878173828125
-0.5067138671875,-0.5592041015625,-0.490478515625,18.69964599609375,-22.17864990234375,45.03631591796875
