accel_x,accel_y,accel_z,gyro_x,gyro_y,gyro_z
-0.956787109375,0.478271484375,0.160400390625,-1.7547607421875,-10.650634765625,-21.4080810546875
-0.967041015625,0.478759765625,0.1602783203125,-2.0904541015625,-10.0250244140625,-22.8729248046875
-0.9764404296875,0.4892578125,0.163330078125,-3.60870361328125,-9.31549072265625,-23.529052734375
-0.984619140625,0.4779052734375,0.1578369140625,-9.40704345703125,-9.26971435546875,-22.56011962890625
-0.991943359375,0.474365234375,0.16650390625,-12.50457763671875,-8.544921875,-22.186279296875
-0.99853515625,0.4810791015625,0.165771484375,-11.68060302734375,-9.13238525390625,-22.42279052734375
-1.0093994140625,0.500732421875,0.167724609375,-11.29913330078125,-9.95635986328125,-21.15631103515625
-1.018798828125,0.4912109375,0.1624755859375,-12.1307373046875,-10.18524169921875,-18.69964599609375
-1.0291748046875,0.5123291015625,0.14404296875,-4.1046142578125,-8.4686279296875,-18.76068115234375
-1.0322265625,0.5203857421875,0.1234130859375,5.37872314453125,-7.720947265625,-20.24078369140625
-1.0399169921875,0.5169677734375,0.1077880859375,12.82501220703125,-7.86590576171875,-21.43096923828125
-1.0484619140625,0.5052490234375,0.09814453125,20.721435546875,-9.77325439453125,-22.6898193359375
-1.052734375,0.4925537109375,0.1011962890625,27.52685546875,-13.336181640625,-24.25384521484375
-1.052734375,0.484375,0.11083984375,30.67779541015625,-17.059326171875,-25.85601806640625
-1.049560546875,0.4815673828125,0.1209716796875,30.05218505859375,-19.927978515625,-27.29034423828125
-1.043212890625,0.4815673828125,0.1334228515625,28.717041015625,-22.56011962890625,-28.7628173828125
-1.0352783203125,0.487548828125,0.1451416015625,29.83856201171875,-26.30615234375,-30.47943115234375
-1.0340576171875,0.4755859375,0.1629638671875,34.50775146484375,-31.4178466796875,-31.7840576171875
-1.0439453125,0.4775390625,0.165771484375,43.58673095703125,-39.8101806640625,-33.233642578125
-1.0611572265625,0.4906005859375,0.1719970703125,51.30767822265625,-49.01123046875,-34.87396240234375
-1.072509765625,0.5045166015625,0.1748046875,53.81011962890625,-55.694580078125,-36.21673583984375
-1.0718994140625,0.515625,0.178955078125,52.43682861328125,-59.66949462890625,-36.651611328125
-1.0728759765625,0.524658203125,0.1864013671875,50.30059814453125,-63.36212158203125,-35.7666015625
-1.07373046875,0.530517578125,0.19482421875,49.4537353515625,-69.2901611328125,-33.935546875
-1.0733642578125,0.529296875,0.2099609375,48.48480224609375,-78.33099365234375,-31.92138671875
-1.06884765625,0.5162353515625,0.2353515625,45.7305908203125,-88.99688720703125,-30.02166748046875
-1.0679931640625,0.498046875,0.2633056640625,42.66357421875,-100.3570556640625,-28.92303466796875
-1.0670166015625,0.4776611328125,0.2969970703125,40.4510498046875,-112.1368408203125,-28.34320068359375
-1.0675048828125,0.4622802734375,0.3299560546875,39.093017578125,-123.260498046875,-28.08380126953125
-1.07470703125,0.4674072265625,0.3487548828125,39.58892822265625,-134.46807861328125,-27.61077880859375
-1.0888671875,0.4783935546875,0.361572265625,42.09136962890625,-147.89581298828125,-28.29742431640625
-1.109130859375,0.4818115234375,0.3720703125,42.47283935546875,-163.665771484375,-31.42547607421875
-1.1322021484375,0.4884033203125,0.3818359375,37.811279296875,-180.11474609375,-35.51483154296875
-1.1549072265625,0.4964599609375,0.3900146484375,28.17535400390625,-194.5037841796875,-38.45977783203125
-1.176025390625,0.5103759765625,0.397216796875,15.66314697265625,-204.620361328125,-39.78729248046875
-1.1951904296875,0.520263671875,0.399169921875,1.0986328125,-210.2508544921875,-38.8641357421875
-1.2083740234375,0.5299072265625,0.400390625,-14.04571533203125,-210.74676513671875,-36.33880615234375
-1.2177734375,0.541015625,0.3958740234375,-29.7393798828125,-207.03887939453125,-32.5164794921875
-1.224365234375,0.5555419921875,0.3875732421875,-46.8292236328125,-200.347900390625,-27.3284912109375
-1.22314453125,0.5679931640625,0.3787841796875,-65.582275390625,-191.47491455078125,-21.17156982421875
-1.2174072265625,0.585693359375,0.3680419921875,-85.13641357421875,-180.9234619140625,-14.88494873046875
-1.2125244140625,0.6195068359375,0.3480224609375,-104.827880859375,-169.647216796875,-9.857177734375
-1.2108154296875,0.6468505859375,0.31494140625,-120.12481689453125,-159.81292724609375,-9.0789794921875
-1.20556640625,0.65576171875,0.2877197265625,-130.21087646484375,-155.2734375,-12.59613037109375
-1.1898193359375,0.6531982421875,0.2598876953125,-139.22882080078125,-156.463623046875,-17.25006103515625
-1.1668701171875,0.6484375,0.229248046875,-146.5606689453125,-159.23309326171875,-21.65985107421875
-1.136474609375,0.6458740234375,0.2012939453125,-151.77154541015625,-161.30828857421875,-25.44403076171875
-1.09912109375,0.6468505859375,0.1817626953125,-155.79986572265625,-161.1480712890625,-28.2440185546875
-1.0565185546875,0.643310546875,0.1610107421875,-159.7747802734375,-158.16497802734375,-28.9306640625
-1.010986328125,0.64013671875,0.1383056640625,-161.47613525390625,-151.39007568359375,-27.27508544921875
-0.9658203125,0.64501953125,0.1131591796875,-160.919189453125,-141.25823974609375,-22.98736572265625
-0.923095703125,0.658447265625,0.078857421875,-157.4554443359375,-128.662109375,-16.74652099609375
-0.87890625,0.6595458984375,0.0396728515625,-151.5655517578125,-116.546630859375,-11.0626220703125
-0.8292236328125,0.6456298828125,0.0048828125,-145.172119140625,-107.4981689453125,-7.62176513671875
-0.779052734375,0.628662109375,-0.0235595703125,-138.29803466796875,-100.738525390625,-6.3018798828125
-0.7332763671875,0.6119384765625,-0.0452880859375,-129.61578369140625,-95.05462646484375,-6.134033203125
-0.69287109375,0.59521484375,-0.0662841796875,-119.65179443359375,-90.484619140625,-5.584716796875
-0.650390625,0.590576171875,-0.0877685546875,-107.21588134765625,-86.00616455078125,-3.9215087890625
-0.60498046875,0.570556640625,-0.10302734375,-93.994140625,-80.97076416015625,-1.0528564453125
-0.568603515625,0.5455322265625,-0.1162109375,-82.2296142578125,-74.5391845703125,2.1209716796875
-0.5408935546875,0.5201416015625,-0.1287841796875,-71.52557373046875,-66.558837890625,4.6844482421875
-0.5111083984375,0.4853515625,-0.131591796875,-62.12615966796875,-57.42645263671875,6.35528564453125
-0.47900390625,0.4498291015625,-0.13671875,-53.9703369140625,-46.27227783203125,8.91876220703125
-0.462890625,0.4368896484375,-0.1673583984375,-42.8466796875,-33.82110595703125,12.50457763671875
-0.4627685546875,0.453857421875,-0.205322265625,-30.609130859375,-21.12579345703125,15.28167724609375
-0.4556884765625,0.4981689453125,-0.2320556640625,-25.20751953125,-9.063720703125,15.64788818359375
-0.4373779296875,0.4981689453125,-0.2373046875,-25.9857177734375,-0.38909912109375,12.42828369140625
-0.42822265625,0.4970703125,-0.2200927734375,-24.74212646484375,5.91278076171875,9.2010498046875
-0.466796875,0.5323486328125,-0.1815185546875,-12.0391845703125,12.7716064453125,8.04901123046875
-0.509033203125,0.5865478515625,-0.145263671875,9.65118408203125,22.08709716796875,7.80487060546875
-0.531005859375,0.5748291015625,-0.08349609375,23.1170654296875,32.85980224609375,5.31768798828125
-0.581298828125,0.5699462890625,-0.01806640625,21.3165283203125,43.20526123046875,-0.0457763671875
-0.668212890625,0.5272216796875,0.0391845703125,9.124755859375,54.0008544921875,-2.95257568359375
-0.7724609375,0.4007568359375,0.0543212890625,-4.241943359375,66.7266845703125,-3.94439697265625
-0.798828125,0.3677978515625,0.1292724609375,-1.861572265625,85.5865478515625,-14.312744140625
-0.8726806640625,0.373046875,0.1488037109375,22.66693115234375,107.2540283203125,-38.26141357421875
-1.0260009765625,0.3118896484375,0.173095703125,42.3431396484375,128.997802734375,-50.01068115234375
-1.2225341796875,0.3118896484375,0.1688232421875,38.49029541015625,157.5775146484375,-34.72137451171875
-1.4483642578125,0.326171875,0.2523193359375,18.59283447265625,177.8717041015625,-0.90789794921875
-1.7337646484375,0.3511962890625,0.4124755859375,15.6402587890625,186.02752685546875,60.09674072265625
-1.6954345703125,0.3502197265625,0.5496826171875,15.12908935546875,202.20947265625,153.3355712890625
-1.42919921875,0.1448974609375,0.6231689453125,-8.00323486328125,224.9755859375,222.65625
-1.4224853515625,0.1500244140625,0.683837890625,-39.55841064453125,232.391357421875,229.5684814453125
-1.7423095703125,0.1737060546875,0.7032470703125,-62.61444091796875,223.41156005859375,221.88568115234375
-1.8720703125,0.166748046875,0.7794189453125,-71.22039794921875,210.5255126953125,213.95111083984375
-1.7144775390625,0.1854248046875,0.8397216796875,-78.857421875,186.95831298828125,198.90594482421875
-1.42578125,0.2537841796875,0.74853515625,-101.7608642578125,144.34814453125,160.7208251953125
-1.406494140625,0.2049560546875,0.64306640625,-122.98583984375,113.02947998046875,132.98797607421875
-1.5247802734375,0.1431884765625,0.5333251953125,-143.6309814453125,113.45672607421875,118.88885498046875
-1.528564453125,0.0570068359375,0.3565673828125,-154.876708984375,115.1580810546875,113.10577392578125
-1.478271484375,0.0081787109375,0.357177734375,-141.05987548828125,120.71990966796875,109.527587890625
-1.36962890625,-0.04931640625,0.4010009765625,-134.5672607421875,134.3841552734375,102.79083251953125
-1.29931640625,-0.0780029296875,0.3485107421875,-133.1634521484375,141.876220703125,91.42303466796875
-1.300048828125,-0.0655517578125,0.3232421875,-111.28997802734375,135.15472412109375,75.927734375
-1.239990234375,-0.0341796875,0.3358154296875,-79.18548583984375,124.71771240234375,59.2041015625
-1.253173828125,0.020263671875,0.3992919921875,-50.567626953125,113.067626953125,46.844482421875
-1.182861328125,0.0638427734375,0.46728515625,-32.1502685546875,84.00726318359375,38.7420654296875
-1.0751953125,0.0791015625,0.50146484375,-14.18304443359375,49.7283935546875,33.45489501953125
-0.944091796875,0.1181640625,0.538818359375,1.76239013671875,16.326904296875,30.06744384765625
-0.79638671875,0.0865478515625,0.509765625,-6.0577392578125,-1.8768310546875,28.2135009765625
-0.7259521484375,0.0494384765625,0.444091796875,-15.80810546875,-7.01141357421875,28.0303955078125
-0.72412109375,0.0767822265625,0.427734375,-12.06207275390625,-10.20050048828125,28.8543701171875
-0.7503662109375,0.1182861328125,0.3992919921875,-10.101318359375,-14.44244384765625,31.768798828125
-0.765625,0.1424560546875,0.321044921875,-13.49639892578125,-15.81573486328125,34.18731689453125
-0.7576904296875,0.156005859375,0.24365234375,-21.2554931640625,-12.8326416015625,35.46142578125
-0.7691650390625,0.1534423828125,0.1815185546875,-34.09576416015625,-5.340576171875,36.376953125
-0.7900390625,0.154296875,0.1446533203125,-46.68426513671875,6.65283203125,37.4298095703125
-0.779296875,0.1455078125,0.1202392578125,-57.586669921875,22.42279052734375,40.2069091796875
-0.764404296875,0.155517578125,0.1048583984375,-66.741943359375,39.0777587890625,48.80523681640625
-0.7269287109375,0.153076171875,0.1070556640625,-73.9898681640625,52.6123046875,59.2041015625
-0.688232421875,0.124755859375,0.1356201171875,-76.8890380859375,56.671142578125,69.2901611328125
-0.7071533203125,0.141357421875,0.1827392578125,-76.46942138671875,56.5032958984375,76.1260986328125
-0.719970703125,0.1099853515625,0.1824951171875,-76.751708984375,52.5054931640625,78.11737060546875
-0.7027587890625,0.0638427734375,0.1982421875,-76.416015625,44.7235107421875,79.03289794921875
-0.7950439453125,0.11572265625,0.1939697265625,-82.17620849609375,38.32244873046875,82.09991455078125
-0.8240966796875,0.0904541015625,0.156494140625,-85.48736572265625,38.74969482421875,85.71624755859375
-0.8690185546875,0.087646484375,0.1458740234375,-88.3636474609375,44.44122314453125,88.85955810546875
-0.90869140625,0.0667724609375,0.1248779296875,-88.70697021484375,54.7943115234375,90.76690673828125
-0.92529296875,0.0418701171875,0.1199951171875,-84.86175537109375,67.98553466796875,93.3074951171875
-0.95263671875,0.03125,0.1517333984375,-79.79583740234375,81.97021484375,97.5799560546875
-0.93408203125,-0.0078125,0.1539306640625,-76.83563232421875,91.8426513671875,98.175048828125
-0.97119140625,-0.01220703125,0.2237548828125,-76.751708984375,101.18865966796875,94.2230224609375
-1.0059814453125,-0.0228271484375,0.2728271484375,-69.00787353515625,107.58209228515625,92.72003173828125
-1.00439453125,-0.0311279296875,0.318603515625,-61.5386962890625,106.5216064453125,92.58270263671875
-1.0018310546875,-0.0699462890625,0.376220703125,-54.75616455078125,101.18865966796875,91.28570556640625
-0.988037109375,-0.0762939453125,0.431640625,-44.8760986328125,90.5914306640625,86.35711669921875
-0.9801025390625,-0.1051025390625,0.4853515625,-34.46197509765625,80.9326171875,82.366943359375
-0.982177734375,-0.1112060546875,0.4974365234375,-23.61297607421875,72.92938232421875,78.887939453125
-0.994140625,-0.0577392578125,0.498291015625,-17.7459716796875,67.32940673828125,77.81219482421875
-1.0377197265625,-0.0655517578125,0.5189208984375,-23.44512939453125,64.849853515625,87.50152587890625
-0.9951171875,-0.14599609375,0.5950927734375,-31.08978271484375,60.211181640625,100.24261474609375
-0.986328125,-0.2032470703125,0.678466796875,-19.5465087890625,54.60357666015625,96.07696533203125
-1.0128173828125,-0.1990966796875,0.67236328125,6.84356689453125,42.25921630859375,77.0416259765625
-1.0404052734375,-0.168701171875,0.658935546875,26.49688720703125,30.46417236328125,55.53436279296875
-1.060302734375,-0.1448974609375,0.6490478515625,36.44561767578125,21.4996337890625,35.9344482421875
-1.060302734375,-0.122314453125,0.64697265625,41.748046875,13.946533203125,19.0887451171875
-1.045654296875,-0.1070556640625,0.6414794921875,44.77691650390625,6.805419921875,4.08172607421875
-1.03369140625,-0.0946044921875,0.6390380859375,46.0052490234375,-0.7781982421875,-9.65118408203125
-1.037353515625,-0.0791015625,0.636474609375,45.37200927734375,-9.2620849609375,-21.70562744140625
-1.05029296875,-0.05322265625,0.654541015625,40.59600830078125,-17.69256591796875,-31.88323974609375
-1.07421875,-0.0379638671875,0.661865234375,29.0374755859375,-26.34429931640625,-40.740966796875
-1.091552734375,-0.0216064453125,0.647216796875,16.62445068359375,-35.3851318359375,-49.46136474609375
-1.1063232421875,-0.004150390625,0.618408203125,7.171630859375,-44.3572998046875,-57.342529296875
-1.115966796875,0.0198974609375,0.5784912109375,-0.06103515625,-52.08587646484375,-63.96484375
-1.1182861328125,0.0443115234375,0.54150390625,-6.9732666015625,-58.4259033203125,-69.3359375
-1.1185302734375,0.06884765625,0.5111083984375,-12.41302490234375,-64.38446044921875,-73.57025146484375
-1.1226806640625,0.0916748046875,0.480224609375,-14.3280029296875,-70.3582763671875,-76.324462890625
-1.126220703125,0.1148681640625,0.462158203125,-12.99285888671875,-75.0579833984375,-76.85089111328125
-1.1343994140625,0.1507568359375,0.46630859375,-8.49151611328125,-78.68194580078125,-75.78277587890625
-1.16064453125,0.1978759765625,0.4974365234375,-2.3956298828125,-83.36639404296875,-74.5697021484375
-1.2052001953125,0.22607421875,0.4871826171875,-0.2593994140625,-88.6688232421875,-74.2950439453125
-1.2352294921875,0.24072265625,0.4678955078125,2.00653076171875,-93.017578125,-74.3865966796875
-1.2587890625,0.2554931640625,0.4578857421875,6.35528564453125,-95.3369140625,-75.40130615234375
-1.2811279296875,0.2623291015625,0.45166015625,13.12255859375,-95.57342529296875,-77.64434814453125
-1.2972412109375,0.2611083984375,0.458251953125,21.7437744140625,-95.06988525390625,-81.29119873046875
-1.30859375,0.25390625,0.465576171875,31.07452392578125,-95.20721435546875,-86.14349365234375
-1.313720703125,0.2421875,0.4852294921875,38.4521484375,-96.7254638671875,-91.88079833984375
-1.3248291015625,0.2288818359375,0.520263671875,42.938232421875,-100.4638671875,-99.02191162109375
-1.3436279296875,0.2139892578125,0.579345703125,46.59271240234375,-109.100341796875,-106.7352294921875
-1.3697509765625,0.185791015625,0.6256103515625,53.59649658203125,-124.68719482421875,-114.72320556640625
-1.387451171875,0.150390625,0.6396484375,61.65313720703125,-143.69964599609375,-122.4212646484375
-1.385009765625,0.1173095703125,0.631103515625,66.18499755859375,-162.60528564453125,-128.71551513671875
-1.3731689453125,0.0919189453125,0.6126708984375,65.704345703125,-179.03900146484375,-133.6212158203125
-1.358642578125,0.0771484375,0.59375,59.13543701171875,-192.3370361328125,-137.00103759765625
-1.344482421875,0.072021484375,0.5828857421875,45.3948974609375,-202.90374755859375,-138.9617919921875
-1.33251953125,0.07958984375,0.5804443359375,26.35955810546875,-209.31243896484375,-139.6636962890625
-1.322998046875,0.0938720703125,0.5872802734375,4.14276123046875,-211.0748291015625,-139.01519775390625
-1.3162841796875,0.11767578125,0.601806640625,-19.09637451171875,-209.14459228515625,-137.68768310546875
-1.3143310546875,0.15234375,0.6163330078125,-42.327880859375,-204.42962646484375,-136.444091796875
-1.3203125,0.1898193359375,0.628662109375,-65.2008056640625,-197.44873046875,-135.6658935546875
-1.3150634765625,0.227783203125,0.6282958984375,-86.84539794921875,-187.8204345703125,-135.35308837890625
-1.295654296875,0.2618408203125,0.6121826171875,-107.0709228515625,-175.40740966796875,-135.07080078125
-1.2630615234375,0.2926025390625,0.59033203125,-124.8626708984375,-161.68212890625,-135.12420654296875
-1.221435546875,0.318115234375,0.566650390625,-140.31219482421875,-148.59771728515625,-135.94818115234375
-1.1778564453125,0.33984375,0.548828125,-153.6102294921875,-137.56561279296875,-137.38250732421875
-1.136474609375,0.3594970703125,0.53955078125,-163.29193115234375,-128.92913818359375,-139.068603515625
-1.1038818359375,0.3826904296875,0.5389404296875,-167.80853271484375,-121.978759765625,-140.25115966796875
-1.06787109375,0.4058837890625,0.544677734375,-167.90008544921875,-116.5313720703125,-140.6402587890625
-1.036376953125,0.419677734375,0.5347900390625,-163.85650634765625,-111.36627197265625,-140.19775390625
-0.9888916015625,0.4259033203125,0.508544921875,-157.75299072265625,-104.30145263671875,-139.6942138671875
-0.9315185546875,0.4259033203125,0.4677734375,-148.70452880859375,-97.1221923828125,-138.0615234375
-0.8773193359375,0.4210205078125,0.4296875,-138.97705078125,-90.37017822265625,-135.79559326171875
-0.8294677734375,0.413818359375,0.3978271484375,-129.0740966796875,-85.06011962890625,-132.6751708984375
-0.7845458984375,0.4073486328125,0.36669921875,-118.76678466796875,-80.90972900390625,-128.4027099609375
-0.741943359375,0.39990234375,0.33740234375,-108.26873779296875,-77.78167724609375,-122.90191650390625
-0.7010498046875,0.39208984375,0.3052978515625,-97.58758544921875,-75.2716064453125,-116.2567138671875
-0.662109375,0.3887939453125,0.27490234375,-87.005615234375,-72.8759765625,-108.82568359375
-0.635009765625,0.3875732421875,0.2523193359375,-76.80511474609375,-70.25146484375,-100.80718994140625
-0.6080322265625,0.385009765625,0.225341796875,-66.89453125,-67.291259765625,-92.12493896484375
-0.5789794921875,0.3826904296875,0.199462890625,-57.16705322265625,-63.45367431640625,-82.4737548828125
-0.5523681640625,0.3829345703125,0.17431640625,-48.14910888671875,-58.9599609375,-71.9451904296875
-0.53369140625,0.3887939453125,0.1624755859375,-39.78729248046875,-54.0618896484375,-60.50872802734375
-0.5252685546875,0.3946533203125,0.1556396484375,-31.280517578125,-48.88916015625,-48.0194091796875
-0.52001953125,0.3997802734375,0.148681640625,-22.2015380859375,-43.0908203125,-34.04998779296875
-0.519775390625,0.4093017578125,0.146240234375,-12.79449462890625,-36.38458251953125,-18.4783935546875
-0.5269775390625,0.4110107421875,0.1439208984375,-4.1656494140625,-28.9764404296875,-1.3275146484375
-0.5386962890625,0.400634765625,0.140625,3.7384033203125,-21.05712890625,16.7388916015625
-0.552978515625,0.3785400390625,0.1470947265625,11.02447509765625,-12.26806640625,34.64508056640625
-0.5667724609375,0.3470458984375,0.150634765625,17.76123046875,-3.173828125,51.3458251953125
-0.57763671875,0.315185546875,0.153076171875,24.87945556640625,5.62286376953125,65.8416748046875
-0.596923828125,0.298095703125,0.163818359375,33.47015380859375,14.13726806640625,77.52227783203125
-0.6300048828125,0.3040771484375,0.193115234375,42.633056640625,22.613525390625,86.7767333984375
-0.668701171875,0.3179931640625,0.23974609375,52.1240234375,30.96771240234375,95.31402587890625
-0.7139892578125,0.3275146484375,0.2879638671875,62.79754638671875,39.80255126953125,104.49981689453125
-0.7611083984375,0.3267822265625,0.3287353515625,74.7222900390625,49.957275390625,114.3798828125
-0.8179931640625,0.329833984375,0.3853759765625,86.822509765625,61.75994873046875,123.83270263671875
-0.8907470703125,0.3289794921875,0.4556884765625,97.75543212890625,74.76043701171875,132.1258544921875
-0.9691162109375,0.32080078125,0.5352783203125,106.2774658203125,88.5467529296875,139.5111083984375
-1.040283203125,0.3004150390625,0.61279296875,111.39678955078125,102.43988037109375,146.14105224609375
-1.099853515625,0.2718505859375,0.6917724609375,113.372802734375,115.2496337890625,151.85546875
-1.1470947265625,0.23779296875,0.7613525390625,113.555908203125,125.5340576171875,156.92138671875
-1.1805419921875,0.2037353515625,0.8153076171875,113.02947998046875,133.00323486328125,161.90338134765625
-1.209716796875,0.1771240234375,0.85888671875,112.5946044921875,138.43536376953125,167.0989990234375
-1.2421875,0.163330078125,0.892333984375,114.2425537109375,143.5089111328125,171.98944091796875
-1.3037109375,0.16064453125,0.9215087890625,119.37713623046875,149.22332763671875,176.42974853515625
-1.40625,0.1871337890625,0.910888671875,126.01470947265625,158.69140625,180.99212646484375
-1.5264892578125,0.1978759765625,0.90966796875,132.72857666015625,181.2744140625,182.99102783203125
-1.6053466796875,0.1639404296875,0.760498046875,138.4124755859375,209.35821533203125,188.57574462890625
-1.6910400390625,0.0943603515625,0.8785400390625,148.00262451171875,243.9727783203125,195.77789306640625
-1.509033203125,-0.0206298828125,0.9254150390625,137.84027099609375,247.90191650390625,183.73870849609375
-1.396484375,-0.0751953125,0.8795166015625,129.26483154296875,233.0780029296875,155.05218505859375
-1.405517578125,-0.0662841796875,0.8214111328125,132.89642333984375,209.320068359375,123.321533203125
-1.4105224609375,-0.0545654296875,0.756591796875,141.7236328125,185.40191650390625,92.254638671875
-1.3778076171875,-0.04833984375,0.7027587890625,150.177001953125,166.229248046875,64.03350830078125
-1.22900390625,-0.0345458984375,0.6409912109375,159.97314453125,149.23858642578125,42.06085205078125
-1.2081298828125,-0.0211181640625,0.5875244140625,163.2080078125,134.69696044921875,31.036376953125
-1.0213623046875,0.0262451171875,0.5504150390625,168.7164306640625,117.37060546875,27.64892578125
-0.9007568359375,0.0321044921875,0.552734375,172.7142333984375,116.98150634765625,30.8990478515625
-0.89990234375,0.040771484375,0.556396484375,159.70611572265625,120.6207275390625,35.400390625
-0.904541015625,0.060791015625,0.5115966796875,131.4697265625,115.478515625,36.30828857421875
-0.8876953125,0.0823974609375,0.4354248046875,104.583740234375,106.048583984375,35.369873046875
-0.8642578125,0.10205078125,0.38623046875,86.69281005859375,98.5260009765625,35.04180908203125
-0.861083984375,0.1170654296875,0.3780517578125,78.033447265625,92.1478271484375,34.4696044921875
-0.8690185546875,0.12060546875,0.3717041015625,70.2056884765625,83.51898193359375,33.111572265625
-0.8736572265625,0.135498046875,0.336181640625,60.55450439453125,72.44110107421875,30.87615966796875
-0.87841796875,0.163330078125,0.2977294921875,50.69732666015625,62.9425048828125,28.62548828125
-0.8740234375,0.182373046875,0.25927734375,36.56768798828125,58.3343505859375,28.58734130859375
-0.8797607421875,0.191162109375,0.239013671875,19.38629150390625,61.01226806640625,31.22711181640625
-0.885986328125,0.200439453125,0.259765625,6.26373291015625,67.5201416015625,35.797119140625
-0.88671875,0.1986083984375,0.278076171875,-0.46539306640625,71.83074951171875,42.94586181640625
-0.88427734375,0.1796875,0.257080078125,-4.5623779296875,76.04217529296875,51.20849609375
-0.890869140625,0.15576171875,0.2386474609375,-5.82122802734375,85.13641357421875,57.3272705078125
-0.9014892578125,0.138671875,0.2547607421875,-4.08172607421875,98.50311279296875,59.844970703125
-0.9127197265625,0.133544921875,0.287109375,-0.78582763671875,110.49652099609375,59.7991943359375
-0.9456787109375,0.1470947265625,0.3603515625,5.39398193359375,117.156982421875,59.56268310546875
-0.939453125,0.142822265625,0.3978271484375,11.25335693359375,113.983154296875,61.309814453125
-0.9349365234375,0.1195068359375,0.411376953125,15.09857177734375,108.74176025390625,61.767578125
-0.9381103515625,0.097412109375,0.4080810546875,18.3563232421875,100.24261474609375,58.8226318359375
-0.954345703125,0.0889892578125,0.4046630859375,19.63043212890625,90.75164794921875,54.34417724609375
-0.9881591796875,0.0938720703125,0.4100341796875,22.13287353515625,81.085205078125,49.468994140625
-1.028076171875,0.1163330078125,0.428955078125,24.749755859375,67.68035888671875,46.59271240234375
-1.029052734375,0.1185302734375,0.4183349609375,25.4974365234375,55.0384521484375,46.0357666015625
-1.01171875,0.096923828125,0.4019775390625,28.50341796875,50.49896240234375,45.22705078125
-0.983154296875,0.082763671875,0.414306640625,29.45709228515625,58.2275390625,43.182373046875
-0.9913330078125,0.0653076171875,0.440673828125,26.10015869140625,73.8067626953125,41.26739501953125
-1.0283203125,0.0877685546875,0.4998779296875,27.73284912109375,86.52496337890625,40.4510498046875
-1.01318359375,0.095947265625,0.5770263671875,31.73065185546875,85.86883544921875,39.520263671875
-0.99560546875,0.08642578125,0.654541015625,33.95843505859375,67.7337646484375,35.20965576171875
-0.9981689453125,0.09619140625,0.6507568359375,37.811279296875,38.14697265625,25.36773681640625
-1.01025390625,0.0841064453125,0.6260986328125,45.5780029296875,11.4593505859375,13.7481689453125
-1.0230712890625,0.0643310546875,0.61669921875,50.25482177734375,-9.0179443359375,2.0904541015625
-1.0633544921875,0.0482177734375,0.6068115234375,50.96435546875,-26.18408203125,-8.9874267578125
-1.071044921875,0.0352783203125,0.593505859375,48.614501953125,-39.29901123046875,-18.646240234375
-1.0576171875,0.024658203125,0.576904296875,43.243408203125,-47.29461669921875,-25.09307861328125
-1.0550537109375,0.02099609375,0.568359375,32.87506103515625,-51.12457275390625,-27.50396728515625
-1.0780029296875,0.02783203125,0.5714111328125,19.10400390625,-54.96978759765625,-27.16064453125
-1.125732421875,0.052734375,0.563720703125,6.5155029296875,-62.21771240234375,-27.1453857421875
-1.15869140625,0.0802001953125,0.5455322265625,-5.06591796875,-69.88525390625,-28.3203125
-1.1683349609375,0.111572265625,0.546142578125,-15.19775390625,-77.87322998046875,-30.21240234375
-1.170166015625,0.1357421875,0.53125,-22.7203369140625,-90.0421142578125,-32.27996826171875
-1.178955078125,0.1588134765625,0.4964599609375,-27.4658203125,-105.8197021484375,-34.3017578125
-1.193359375,0.1796875,0.449462890625,-28.75518798828125,-121.23870849609375,-36.76605224609375
-1.208984375,0.19921875,0.40576171875,-28.13720703125,-132.33184814453125,-40.496826171875
-1.2220458984375,0.2218017578125,0.377197265625,-25.3143310546875,-137.97760009765625,-45.10498046875
-1.239013671875,0.2486572265625,0.356689453125,-20.79010009765625,-139.3280029296875,-49.56817626953125
-1.2626953125,0.2755126953125,0.341064453125,-14.495849609375,-137.70294189453125,-52.9632568359375
-1.2969970703125,0.292724609375,0.3529052734375,-8.4381103515625,-132.8277587890625,-55.7098388671875
-1.330078125,0.306640625,0.38671875,-2.52532958984375,-130.2490234375,-61.492919921875
-1.36474609375,0.31640625,0.4161376953125,6.27899169921875,-134.10186767578125,-69.4427490234375
-1.3812255859375,0.3189697265625,0.443603515625,18.85986328125,-142.7154541015625,-75.1800537109375
-1.4105224609375,0.3048095703125,0.4632568359375,31.3262939453125,-150.99334716796875,-78.094482421875
-1.3970947265625,0.2867431640625,0.4647216796875,45.440673828125,-162.25433349609375,-79.94842529296875
-1.3966064453125,0.2535400390625,0.483642578125,53.77960205078125,-171.8597412109375,-78.01055908203125
-1.387939453125,0.2333984375,0.492919921875,61.7218017578125,-186.70654296875,-76.97296142578125
-1.3697509765625,0.2030029296875,0.4908447265625,66.67327880859375,-202.61383056640625,-68.695068359375
-1.354736328125,0.1724853515625,0.505859375,68.8934326171875,-215.17181396484375,-59.59320068359375
-1.339599609375,0.148681640625,0.5335693359375,67.7490234375,-228.87420654296875,-53.1463623046875
-1.3289794921875,0.129150390625,0.541748046875,61.859130859375,-244.60601806640625,-49.591064453125
-1.31689453125,0.1195068359375,0.542724609375,51.13983154296875,-250.0,-47.64556884765625
-1.30908203125,0.1170654296875,0.546630859375,35.675048828125,-250.0,-46.5087890625
-1.3106689453125,0.12451171875,0.5562744140625,16.4947509765625,-250.0,-46.47064208984375
-1.3197021484375,0.14404296875,0.572509765625,-4.52423095703125,-250.0,-47.7294921875
-1.3270263671875,0.1678466796875,0.592041015625,-26.55792236328125,-250.0,-49.896240234375
-1.3389892578125,0.20166015625,0.5872802734375,-48.858642578125,-250.0,-53.18450927734375
-1.3382568359375,0.2467041015625,0.5789794921875,-71.4569091796875,-250.0,-54.05426025390625
-1.321533203125,0.28759765625,0.585693359375,-95.61920166015625,-250.0,-51.38397216796875
-1.297607421875,0.3221435546875,0.5914306640625,-118.46160888671875,-250.0,-49.0875244140625
-1.2696533203125,0.349609375,0.584716796875,-138.6260986328125,-250.0,-49.07989501953125
-1.23388671875,0.38232421875,0.58349609375,-154.67071533203125,-248.7945556640625,-52.8717041015625
-1.195068359375,0.4072265625,0.5819091796875,-164.5660400390625,-226.99737548828125,-57.12890625
-1.1563720703125,0.4239501953125,0.5782470703125,-168.37310791015625,-202.33917236328125,-59.53216552734375
-1.1148681640625,0.4356689453125,0.5726318359375,-168.41888427734375,-178.1463623046875,-59.9212646484375
-1.0716552734375,0.4378662109375,0.5601806640625,-165.74859619140625,-157.21893310546875,-59.50164794921875
-1.026611328125,0.4371337890625,0.544921875,-160.82763671875,-140.960693359375,-59.295654296875
-0.984375,0.4326171875,0.527587890625,-154.51812744140625,-130.157470703125,-59.63897705078125
-0.941162109375,0.426025390625,0.513671875,-147.5067138671875,-123.84033203125,-60.34088134765625
-0.902099609375,0.4151611328125,0.49560546875,-140.1824951171875,-121.23870849609375,-61.13433837890625
-0.8580322265625,0.3994140625,0.4697265625,-132.71331787109375,-120.5291748046875,-62.1185302734375
-0.8148193359375,0.384033203125,0.4417724609375,-125.12969970703125,-120.01800537109375,-63.41552734375
-0.7738037109375,0.3741455078125,0.411865234375,-117.80548095703125,-117.523193359375,-64.727783203125
-0.7347412109375,0.3677978515625,0.3880615234375,-110.96954345703125,-111.79351806640625,-65.60516357421875
-0.6956787109375,0.365234375,0.369873046875,-104.53033447265625,-103.8055419921875,-65.948486328125
-0.659423828125,0.3701171875,0.358154296875,-97.991943359375,-94.38323974609375,-65.52886962890625
-0.628173828125,0.3765869140625,0.3431396484375,-91.4306640625,-84.6710205078125,-63.65966796875
-0.6002197265625,0.3843994140625,0.322998046875,-84.92279052734375,-75.90484619140625,-59.82208251953125
-0.5753173828125,0.3939208984375,0.307861328125,-78.39202880859375,-68.48907470703125,-54.14581298828125
-0.5538330078125,0.4049072265625,0.29443359375,-72.18170166015625,-63.28582763671875,-47.37091064453125
-0.534912109375,0.4129638671875,0.2796630859375,-66.40625,-59.75341796875,-39.520263671875
-0.5169677734375,0.415771484375,0.2591552734375,-60.3179931640625,-56.08367919921875,-30.9906005859375
-0.4989013671875,0.415771484375,0.2396240234375,-53.04718017578125,-51.116943359375,-22.4609375
-0.482421875,0.410888671875,0.22021484375,-44.49462890625,-44.6014404296875,-14.09912109375
-0.4642333984375,0.3992919921875,0.19775390625,-34.46197509765625,-36.56768798828125,-5.767822265625
-0.44482421875,0.3876953125,0.1806640625,-23.03314208984375,-27.42767333984375,2.5177001953125
-0.4354248046875,0.380126953125,0.1705322265625,-10.79559326171875,-17.37213134765625,10.45989990234375
-0.4334716796875,0.3798828125,0.169189453125,1.99127197265625,-6.1187744140625,18.035888671875
-0.4376220703125,0.3914794921875,0.1898193359375,15.167236328125,6.683349609375,25.69580078125
-0.448974609375,0.406005859375,0.2208251953125,28.4576416015625,20.4010009765625,33.721923828125
-0.46337890625,0.41455078125,0.2440185546875,42.3736572265625,34.67559814453125,42.144775390625
-0.4813232421875,0.4249267578125,0.2637939453125,57.22808837890625,50.079345703125,50.80413818359375
-0.509033203125,0.4500732421875,0.303466796875,72.99041748046875,66.88690185546875,59.6771240234375
-0.549560546875,0.4794921875,0.359619140625,88.531494140625,84.7625732421875,68.78662109375
-0.597900390625,0.5050048828125,0.4229736328125,102.85186767578125,102.85186767578125,77.35443115234375
-0.65283203125,0.5272216796875,0.4921875,116.1956787109375,120.7122802734375,84.90753173828125
-0.71337890625,0.54248046875,0.553466796875,128.4637451171875,137.8936767578125,92.010498046875
-0.7760009765625,0.548095703125,0.608642578125,140.0146484375,155.2886962890625,99.22027587890625
-0.83935546875,0.54833984375,0.6678466796875,150.5889892578125,174.49188232421875,107.26165771484375
-0.9132080078125,0.5477294921875,0.7115478515625,159.332275390625,196.502685546875,116.12701416015625
-0.9951171875,0.5487060546875,0.7528076171875,165.61126708984375,226.32598876953125,125.75531005859375
-1.099365234375,0.5614013671875,0.807373046875,169.57855224609375,249.99237060546875,135.31494140625
-1.2578125,0.554443359375,0.854736328125,170.5322265625,249.99237060546875,144.17266845703125
-1.501708984375,0.56689453125,0.89208984375,168.92242431640625,249.99237060546875,150.4974365234375
-1.6231689453125,0.482177734375,1.0142822265625,169.677734375,249.99237060546875,153.45001220703125
-1.5374755859375,0.3653564453125,1.1334228515625,165.09246826171875,249.99237060546875,139.97650146484375
-1.437255859375,0.314453125,1.199462890625,151.25274658203125,249.99237060546875,116.24908447265625
-1.4361572265625,0.290283203125,1.17236328125,137.39776611328125,249.99237060546875,96.91619873046875
-1.42578125,0.2677001953125,1.1328125,122.50518798828125,249.99237060546875,80.78765869140625
-1.3861083984375,0.235595703125,1.090087890625,115.40985107421875,238.22021484375,69.7174072265625
-1.2625732421875,0.150390625,1.02978515625,109.67254638671875,188.49945068359375,71.319580078125
-1.1668701171875,0.06396484375,0.9473876953125,100.42572021484375,146.78192138671875,83.41217041015625
-1.10546875,0.0113525390625,0.8289794921875,88.165283203125,111.00006103515625,96.6339111328125
-1.099853515625,-0.016357421875,0.7266845703125,72.25799560546875,97.7020263671875,105.03387451171875
-1.1156005859375,-0.0372314453125,0.658935546875,53.87115478515625,103.5308837890625,105.010986328125
-1.095947265625,-0.0426025390625,0.6260986328125,33.22601318359375,113.46435546875,98.93035888671875
-1.0718994140625,-0.0196533203125,0.6090087890625,10.43701171875,119.05670166015625,90.41595458984375
-1.041259765625,0.0205078125,0.5904541015625,-12.51983642578125,114.6240234375,81.41326904296875
-1.01318359375,0.063720703125,0.5443115234375,-32.75299072265625,102.62298583984375,73.4100341796875
-0.9957275390625,0.0987548828125,0.49267578125,-47.27935791015625,88.52386474609375,68.1610107421875
-0.9869384765625,0.1348876953125,0.433349609375,-53.955078125,75.592041015625,65.61279296875
-0.9677734375,0.1619873046875,0.3758544921875,-55.21392822265625,66.97845458984375,65.81878662109375
-0.9326171875,0.1754150390625,0.340087890625,-51.5899658203125,63.9190673828125,67.81768798828125
-0.8907470703125,0.1854248046875,0.318603515625,-43.6859130859375,63.6444091796875,70.831298828125
-0.851318359375,0.197509765625,0.3001708984375,-32.9132080078125,65.22369384765625,74.4781494140625
-0.8328857421875,0.2021484375,0.285400390625,-20.34759521484375,70.587158203125,77.99530029296875
-0.83056640625,0.20654296875,0.2926025390625,-8.270263671875,78.75823974609375,79.09393310546875
-0.8291015625,0.1982421875,0.2955322265625,1.91497802734375,86.6851806640625,77.88848876953125
-0.8232421875,0.18017578125,0.3043212890625,11.26861572265625,94.85626220703125,75.52337646484375
-0.8101806640625,0.1629638671875,0.3345947265625,18.53179931640625,99.52545166015625,71.99859619140625
-0.81689453125,0.149169921875,0.347412109375,24.71923828125,96.6033935546875,67.58880615234375
-0.8287353515625,0.14111328125,0.34375,31.97479248046875,89.51568603515625,62.56866455078125
-0.8416748046875,0.1356201171875,0.3582763671875,40.87066650390625,83.94622802734375,57.82318115234375
-0.8394775390625,0.1334228515625,0.384521484375,50.28533935546875,79.07867431640625,54.74090576171875
-0.81884765625,0.128662109375,0.4144287109375,59.51690673828125,74.15008544921875,54.48150634765625
-0.8162841796875,0.1181640625,0.43408203125,67.81005859375,69.88525390625,56.57958984375
-0.839111328125,0.1038818359375,0.4635009765625,74.71466064453125,67.29888916015625,57.2052001953125
-0.85986328125,0.08251953125,0.4949951171875,79.5440673828125,65.49835205078125,53.97796630859375
-0.876953125,0.06689453125,0.5284423828125,81.56585693359375,64.5599365234375,47.99652099609375
-0.88623046875,0.0528564453125,0.5672607421875,80.8563232421875,62.43896484375,41.56494140625
-0.908203125,0.0418701171875,0.591552734375,78.826904296875,54.77142333984375,35.91156005859375
-0.9495849609375,0.043212890625,0.6075439453125,76.46942138671875,42.7703857421875,31.31103515625
-0.9898681640625,0.04638671875,0.6103515625,75.15716552734375,29.76226806640625,27.618408203125
-1.020263671875,0.047607421875,0.60302734375,75.34027099609375,19.9737548828125,24.71160888671875
-1.046142578125,0.0517578125,0.60888671875,75.653076171875,16.09039306640625,23.13995361328125
-1.0684814453125,0.0548095703125,0.6287841796875,74.40948486328125,15.63262939453125,21.64459228515625
-1.096435546875,0.0587158203125,0.6494140625,72.2503662109375,14.2974853515625,17.669677734375
-1.1259765625,0.0545654296875,0.66943359375,70.4193115234375,10.986328125,10.9710693359375
-1.155029296875,0.0421142578125,0.6778564453125,69.4122314453125,3.30352783203125,1.83868408203125
-1.183837890625,0.040771484375,0.6654052734375,67.46673583984375,-8.7738037109375,-8.23211669921875
-1.1943359375,0.0316162109375,0.6480712890625,64.39208984375,-22.42279052734375,-17.6239013671875
-1.2017822265625,0.022216796875,0.622802734375,59.51690673828125,-36.4837646484375,-25.36773681640625
-1.2138671875,0.0224609375,0.5958251953125,53.22265625,-50.1556396484375,-31.31866455078125
-1.2279052734375,0.0286865234375,0.567626953125,46.82159423828125,-61.72943115234375,-35.6903076171875
-1.235107421875,0.04541015625,0.5328369140625,40.985107421875,-70.2667236328125,-39.98565673828125
-1.2298583984375,0.0653076171875,0.497802734375,35.552978515625,-74.7528076171875,-44.28863525390625
-1.224365234375,0.087646484375,0.482177734375,30.37261962890625,-75.25634765625,-48.03466796875
-1.229736328125,0.1153564453125,0.4837646484375,24.871826171875,-76.141357421875,-51.32293701171875
-1.2410888671875,0.139892578125,0.488525390625,21.67510986328125,-80.94024658203125,-54.9163818359375
-1.2442626953125,0.15673828125,0.4765625,22.02606201171875,-90.423583984375,-59.24224853515625
-1.24951171875,0.1807861328125,0.4716796875,25.6805419921875,-102.13470458984375,-64.47601318359375
-1.2681884765625,0.21435546875,0.4794921875,31.79931640625,-116.49322509765625,-69.5648193359375
-1.286376953125,0.2410888671875,0.4693603515625,39.00909423828125,-132.45391845703125,-74.30267333984375
-1.3048095703125,0.265380859375,0.463134765625,46.0968017578125,-146.0418701171875,-80.74188232421875
-1.3277587890625,0.3023681640625,0.4698486328125,53.4210205078125,-158.4625244140625,-90.24810791015625
-1.3289794921875,0.3170166015625,0.46484375,62.15667724609375,-171.69189453125,-93.841552734375
-1.330810546875,0.3289794921875,0.4681396484375,69.63348388671875,-178.985595703125,-95.39794921875
-1.3375244140625,0.337646484375,0.4903564453125,76.05743408203125,-182.16705322265625,-96.33636474609375
-1.3397216796875,0.339111328125,0.5230712890625,80.9173583984375,-187.53814697265625,-96.19903564453125
-1.3385009765625,0.3314208984375,0.5538330078125,84.93804931640625,-196.83837890625,-95.29876708984375
-1.338623046875,0.3187255859375,0.575927734375,88.20343017578125,-208.2061767578125,-94.24591064453125
-1.3360595703125,0.3045654296875,0.6009521484375,88.958740234375,-220.29876708984375,-92.04864501953125
-1.3333740234375,0.2880859375,0.624267578125,85.8154296875,-233.63494873046875,-89.2181396484375
-1.3330078125,0.26806640625,0.63623046875,78.78875732421875,-248.5198974609375,-86.32659912109375
-1.3294677734375,0.24560546875,0.6365966796875,68.023681640625,-250.0,-83.85467529296875
-1.3258056640625,0.2239990234375,0.6363525390625,53.61175537109375,-250.0,-82.061767578125
-1.3197021484375,0.2169189453125,0.6368408203125,35.11810302734375,-250.0,-80.7952880859375
-1.30908203125,0.21923828125,0.634521484375,14.13726806640625,-250.0,-79.21600341796875
-1.2962646484375,0.2281494140625,0.6368408203125,-8.85009765625,-250.0,-76.66015625
-1.2847900390625,0.2420654296875,0.64453125,-32.989501953125,-250.0,-73.5321044921875
-1.272705078125,0.2608642578125,0.655517578125,-56.3507080078125,-250.0,-70.48797607421875
-1.2625732421875,0.2894287109375,0.67236328125,-79.0557861328125,-250.0,-67.3675537109375
-1.255126953125,0.3192138671875,0.6817626953125,-100.128173828125,-250.0,-63.9190673828125
-1.251220703125,0.3487548828125,0.6861572265625,-118.255615234375,-244.91119384765625,-59.88311767578125
-1.2462158203125,0.3760986328125,0.68212890625,-133.6212158203125,-233.8714599609375,-55.65643310546875
-1.2293701171875,0.39404296875,0.6754150390625,-146.98028564453125,-222.8546142578125,-51.513671875
-1.207275390625,0.4071044921875,0.6719970703125,-157.61566162109375,-212.05902099609375,-48.66790771484375
-1.1807861328125,0.4202880859375,0.670166015625,-165.04669189453125,-202.17132568359375,-47.7294921875
-1.151123046875,0.436279296875,0.66455078125,-169.09027099609375,-192.840576171875,-47.93548583984375
-1.119873046875,0.4486083984375,0.646484375,-170.63140869140625,-183.6395263671875,-48.24066162109375
-1.0833740234375,0.455078125,0.62646484375,-170.29571533203125,-173.4161376953125,-48.56109619140625
-1.046142578125,0.4613037109375,0.6112060546875,-168.3502197265625,-163.0706787109375,-49.06463623046875
-1.0091552734375,0.465087890625,0.59619140625,-165.1763916015625,-153.8848876953125,-49.6826171875
-0.968505859375,0.46337890625,0.572265625,-160.83526611328125,-146.6064453125,-50.30059814453125
-0.9259033203125,0.4609375,0.54931640625,-155.9600830078125,-140.7012939453125,-50.59814453125
-0.8848876953125,0.4595947265625,0.529052734375,-150.8636474609375,-136.0626220703125,-50.5218505859375
-0.84765625,0.4561767578125,0.5068359375,-145.20263671875,-132.75146484375,-50.0640869140625
-0.809814453125,0.454833984375,0.4786376953125,-138.763427734375,-130.0506591796875,-49.18670654296875
-0.770751953125,0.4542236328125,0.4503173828125,-132.54547119140625,-126.1138916015625,-47.79815673828125
-0.733154296875,0.4481201171875,0.4180908203125,-126.02996826171875,-120.67413330078125,-45.71533203125
-0.6943359375,0.438232421875,0.3819580078125,-119.07196044921875,-114.2730712890625,-42.76275634765625
-0.658935546875,0.4317626953125,0.349609375,-112.06817626953125,-107.42950439453125,-39.00146484375
-0.62890625,0.4287109375,0.3240966796875,-105.15594482421875,-100.52490234375,-34.6832275390625
-0.603515625,0.429931640625,0.3038330078125,-98.114013671875,-93.52874755859375,-29.97589111328125
-0.576904296875,0.430419921875,0.2862548828125,-90.6829833984375,-85.9832763671875,-24.83367919921875
-0.552734375,0.42919921875,0.27099609375,-82.550048828125,-77.94952392578125,-19.1192626953125
-0.529296875,0.426513671875,0.2529296875,-73.41766357421875,-69.87762451171875,-12.99285888671875
-0.505615234375,0.4193115234375,0.227294921875,-63.41552734375,-62.07275390625,-6.805419921875
-0.4815673828125,0.407958984375,0.1920166015625,-52.87933349609375,-53.84063720703125,-0.518798828125
-0.4610595703125,0.4007568359375,0.1580810546875,-41.9464111328125,-43.8385009765625,5.55419921875
-0.44482421875,0.4027099609375,0.139892578125,-30.426025390625,-32.1044921875,11.3983154296875
-0.4371337890625,0.410400390625,0.134765625,-18.1427001953125,-19.79827880859375,17.34161376953125
-0.4346923828125,0.4224853515625,0.1409912109375,-4.72259521484375,-7.78961181640625,23.71978759765625
-0.43701171875,0.4324951171875,0.14501953125,9.94110107421875,3.753662109375,30.78460693359375
-0.4432373046875,0.442626953125,0.1484375,26.00860595703125,15.80810546875,38.665771484375
-0.458984375,0.45751953125,0.1663818359375,43.426513671875,30.303955078125,47.06573486328125
-0.48291015625,0.4766845703125,0.19775390625,61.6455078125,47.1649169921875,55.22918701171875
-0.51416015625,0.4927978515625,0.2353515625,79.864501953125,64.96429443359375,63.52996826171875
-0.5518798828125,0.504150390625,0.2838134765625,96.87042236328125,81.84814453125,72.4029541015625
-0.5994873046875,0.5079345703125,0.3336181640625,112.091064453125,97.16033935546875,81.39801025390625
-0.6512451171875,0.505126953125,0.380615234375,125.26702880859375,112.6251220703125,90.1641845703125
-0.7073974609375,0.5068359375,0.4378662109375,137.30621337890625,130.40924072265625,98.44970703125
-0.7686767578125,0.5208740234375,0.502197265625,148.8189697265625,151.123046875,106.01043701171875
-0.840087890625,0.539306640625,0.565185546875,160.0494384765625,175.872802734375,112.98370361328125
-0.93017578125,0.570068359375,0.6209716796875,171.4324951171875,206.146240234375,119.13299560546875
-1.045654296875,0.6051025390625,0.65576171875,182.74688720703125,248.0621337890625,124.69482421875
-1.2056884765625,0.65185546875,0.678955078125,192.16156005859375,249.99237060546875,129.1351318359375
-1.4522705078125,0.68212890625,0.763916015625,199.462890625,249.99237060546875,133.70513916015625
-1.6590576171875,0.6602783203125,0.923583984375,199.28741455078125,249.99237060546875,136.6119384765625
-1.6258544921875,0.5487060546875,1.0838623046875,188.1103515625,249.99237060546875,131.744384765625
-1.4742431640625,0.4715576171875,1.1243896484375,175.628662109375,249.99237060546875,117.63763427734375
-1.39794921875,0.397216796875,1.1260986328125,164.26849365234375,249.99237060546875,105.97991943359375
-1.3917236328125,0.3582763671875,1.1082763671875,151.78680419921875,249.99237060546875,94.54345703125
-1.38232421875,0.322509765625,1.0816650390625,147.94158935546875,249.99237060546875,82.2296142578125
-1.322021484375,0.2471923828125,1.04443359375,146.20208740234375,207.2601318359375,77.6824951171875
-1.2340087890625,0.147216796875,0.986328125,138.78631591796875,151.55029296875,86.79962158203125
-1.169189453125,0.0760498046875,0.9151611328125,122.6959228515625,104.30908203125,102.53143310546875
-1.1435546875,0.0311279296875,0.824462890625,98.64044189453125,71.929931640625,117.4774169921875
-1.180908203125,0.0147705078125,0.7198486328125,69.34356689453125,63.78173828125,127.5482177734375
-1.2379150390625,0.0205078125,0.64990234375,38.5284423828125,81.48956298828125,132.5836181640625
-1.2525634765625,0.0408935546875,0.6407470703125,7.5836181640625,110.3515625,133.72039794921875
-1.23876953125,0.077880859375,0.6441650390625,-20.93505859375,134.1094970703125,130.3863525390625
-1.2083740234375,0.1279296875,0.645263671875,-45.0439453125,145.6451416015625,124.70245361328125
-1.1827392578125,0.17919921875,0.6153564453125,-63.018798828125,147.2625732421875,119.1864013671875
-1.1585693359375,0.2308349609375,0.5767822265625,-72.48687744140625,145.111083984375,114.4561767578125
-1.13720703125,0.278076171875,0.5443115234375,-73.30322265625,142.120361328125,110.83984375
-1.110107421875,0.304443359375,0.516845703125,-66.78009033203125,139.9993896484375,108.43658447265625
-1.072509765625,0.3043212890625,0.4847412109375,-53.64990234375,138.81683349609375,107.2540283203125
-1.02734375,0.28857421875,0.4632568359375,-34.60693359375,139.0380859375,108.11614990234375
-0.9935302734375,0.2635498046875,0.4415283203125,-11.98577880859375,142.2271728515625,109.38262939453125
-0.98779296875,0.2384033203125,0.435791015625,12.47406005859375,151.641845703125,107.81097412109375
-0.97900390625,0.20361328125,0.46337890625,35.53009033203125,165.15350341796875,102.142333984375
-0.9478759765625,0.1649169921875,0.525634765625,54.3975830078125,174.6978759765625,93.170166015625
-0.91796875,0.13427734375,0.6053466796875,67.66510009765625,170.5169677734375,83.38165283203125
-0.9141845703125,0.10595703125,0.642333984375,76.72119140625,149.46746826171875,73.84490966796875
-0.9122314453125,0.074462890625,0.654296875,83.9691162109375,120.3765869140625,65.0787353515625
-0.9134521484375,0.0384521484375,0.6561279296875,89.569091796875,91.10260009765625,58.624267578125
-0.9071044921875,0.002197265625,0.6619873046875,92.8192138671875,66.42913818359375,55.27496337890625
-0.8968505859375,-0.0382080078125,0.6510009765625,93.57452392578125,48.78997802734375,54.64935302734375
-0.903076171875,-0.07177734375,0.6435546875,91.094970703125,41.0614013671875,54.64935302734375
-0.916748046875,-0.09326171875,0.6488037109375,85.04486083984375,40.61126708984375,53.44390869140625
-0.93896484375,-0.100830078125,0.664306640625,76.28631591796875,43.39599609375,50.89569091796875
-0.9666748046875,-0.1019287109375,0.6761474609375,66.67327880859375,45.93658447265625,47.44720458984375
-0.99853515625,-0.0860595703125,0.697998046875,56.9000244140625,45.6695556640625,43.1671142578125
-1.0467529296875,-0.057373046875,0.7159423828125,47.61505126953125,39.7796630859375,38.726806640625
-1.08642578125,-0.024169921875,0.7186279296875,40.48919677734375,28.4271240234375,34.12628173828125
-1.1070556640625,-0.005126953125,0.712158203125,36.468505859375,15.15960693359375,28.9306640625
-1.108642578125,0.0001220703125,0.6956787109375,35.45379638671875,2.37274169921875,22.48382568359375
-1.1004638671875,-0.0003662109375,0.6829833984375,37.39166259765625,-8.148193359375,14.18304443359375
-1.095947265625,-0.009765625,0.67919921875,41.5802001953125,-16.38031005859375,4.0740966796875
-1.1060791015625,-0.0146484375,0.677978515625,46.2188720703125,-23.21624755859375,-7.17926025390625
-1.12353515625,-0.008544921875,0.6822509765625,48.858642578125,-28.86962890625,-18.218994140625
-1.1409912109375,0.0072021484375,0.69189453125,47.9736328125,-34.454345703125,-27.2674560546875
-1.1541748046875,0.023681640625,0.694091796875,44.44122314453125,-40.77911376953125,-33.68377685546875
-1.1688232421875,0.0389404296875,0.6910400390625,40.35186767578125,-49.1943359375,-37.7349853515625
-1.1854248046875,0.0662841796875,0.687255859375,36.46087646484375,-61.28692626953125,-40.99273681640625
-1.1876220703125,0.0911865234375,0.6702880859375,33.6456298828125,-76.49993896484375,-44.57855224609375
-1.16943359375,0.106201171875,0.6448974609375,32.43255615234375,-92.78106689453125,-48.82049560546875
-1.1446533203125,0.11572265625,0.6201171875,31.7535400390625,-109.0545654296875,-53.38287353515625
-1.124755859375,0.11572265625,0.5894775390625,31.66961669921875,-125.67138671875,-58.09783935546875
-1.1080322265625,0.1160888671875,0.5548095703125,32.5469970703125,-140.9759521484375,-63.5223388671875
-1.0958251953125,0.121337890625,0.526123046875,33.86688232421875,-153.00750732421875,-69.671630859375
-1.096923828125,0.137451171875,0.507080078125,35.69793701171875,-161.0565185546875,-77.41546630859375
-1.114013671875,0.1678466796875,0.4952392578125,38.73443603515625,-165.19927978515625,-85.96038818359375
-1.143798828125,0.211181640625,0.4967041015625,42.79327392578125,-165.008544921875,-92.94891357421875
-1.194091796875,0.257080078125,0.523193359375,46.8902587890625,-162.1856689453125,-96.68731689453125
-1.251708984375,0.2967529296875,0.564697265625,51.910400390625,-160.54534912109375,-99.37286376953125
-1.3160400390625,0.326904296875,0.5938720703125,58.32672119140625,-164.93988037109375,-102.2186279296875
-1.371826171875,0.357666015625,0.6146240234375,66.009521484375,-174.21722412109375,-104.31671142578125
-1.4310302734375,0.3695068359375,0.6483154296875,72.32666015625,-182.8765869140625,-102.33306884765625
-1.490234375,0.3671875,0.6966552734375,75.11138916015625,-193.93157958984375,-100.3875732421875
-1.538330078125,0.361572265625,0.729248046875,74.54681396484375,-211.44866943359375,-100.03662109375
-1.574951171875,0.338134765625,0.763671875,71.868896484375,-228.67584228515625,-93.5821533203125
-1.6171875,0.3060302734375,0.8004150390625,64.38446044921875,-243.38531494140625,-84.89990234375
-1.6402587890625,0.2755126953125,0.8341064453125,51.35345458984375,-250.0,-79.39910888671875
-1.640380859375,0.250244140625,0.861083984375,34.33990478515625,-250.0,-76.84326171875
-1.6214599609375,0.231201171875,0.876708984375,13.64898681640625,-250.0,-74.5849609375
-1.5927734375,0.2197265625,0.88916015625,-11.89422607421875,-250.0,-71.380615234375
-1.5594482421875,0.223388671875,0.8966064453125,-41.0919189453125,-250.0,-66.558837890625
-1.5225830078125,0.227294921875,0.8909912109375,-71.685791015625,-250.0,-60.3485107421875
-1.4810791015625,0.2445068359375,0.8817138671875,-104.4158935546875,-250.0,-54.29840087890625
-1.4417724609375,0.28076171875,0.8828125,-137.61138916015625,-250.0,-48.5382080078125
-1.40869140625,0.3255615234375,0.8887939453125,-168.548583984375,-250.0,-43.76983642578125
-1.3824462890625,0.37890625,0.8939208984375,-196.25091552734375,-250.0,-41.0614013671875
-1.3563232421875,0.431640625,0.8912353515625,-219.4061279296875,-250.0,-40.74859619140625
-1.332275390625,0.48046875,0.8905029296875,-237.19024658203125,-233.94012451171875,-42.59490966796875
-1.3104248046875,0.5330810546875,0.8975830078125,-249.19891357421875,-210.174560546875,-46.42486572265625
-1.2900390625,0.580810546875,0.8944091796875,-250.0,-190.3533935546875,-52.2613525390625
-1.2645263671875,0.6214599609375,0.8819580078125,-250.0,-176.422119140625,-59.63134765625
-1.233642578125,0.656982421875,0.8642578125,-250.0,-167.327880859375,-67.66510009765625
-1.1944580078125,0.6839599609375,0.8408203125,-247.03216552734375,-162.54425048828125,-75.43182373046875
-1.1502685546875,0.6993408203125,0.8050537109375,-237.9913330078125,-161.1480712890625,-82.51190185546875
-1.099609375,0.6968994140625,0.755126953125,-227.63824462890625,-161.33880615234375,-88.82904052734375
-1.047119140625,0.6842041015625,0.701416015625,-216.4764404296875,-161.3616943359375,-94.18487548828125
-0.9893798828125,0.6649169921875,0.6463623046875,-204.071044921875,-160.51483154296875,-98.28948974609375
-0.9227294921875,0.6414794921875,0.5816650390625,-191.4825439453125,-158.7371826171875,-101.1505126953125
-0.853515625,0.615478515625,0.5142822265625,-179.7027587890625,-155.28106689453125,-102.69927978515625
-0.7869873046875,0.592041015625,0.4512939453125,-168.5028076171875,-150.2838134765625,-102.95867919921875
-0.727294921875,0.5732421875,0.3968505859375,-157.70721435546875,-144.15740966796875,-101.62353515625
-0.66796875,0.5599365234375,0.3529052734375,-146.42333984375,-137.56561279296875,-98.67095947265625
-0.5992431640625,0.546142578125,0.3055419921875,-134.5977783203125,-130.72967529296875,-94.1162109375
-0.538330078125,0.5345458984375,0.25732421875,-123.504638671875,-122.52044677734375,-87.9974365234375
-0.483642578125,0.51806640625,0.2059326171875,-113.41094970703125,-113.60931396484375,-80.40618896484375
-0.431884765625,0.5,0.15869140625,-103.30963134765625,-104.736328125,-71.38824462890625
-0.388671875,0.486328125,0.119873046875,-92.5750732421875,-94.879150390625,-61.492919921875
-0.3546142578125,0.4755859375,0.08740234375,-81.2530517578125,-83.2061767578125,-51.36871337890625
-0.3292236328125,0.466552734375,0.059814453125,-69.45037841796875,-70.85418701171875,-41.6717529296875
-0.3095703125,0.4581298828125,0.0361328125,-56.98394775390625,-58.990478515625,-32.196044921875
-0.2939453125,0.446044921875,0.0172119140625,-43.5943603515625,-48.01177978515625,-22.2625732421875
-0.283203125,0.4351806640625,0.00537109375,-29.2205810546875,-38.06304931640625,-11.5203857421875
-0.2789306640625,0.42431640625,0.006591796875,-13.9617919921875,-28.9306640625,-0.4730224609375
-0.281494140625,0.41748046875,0.010009765625,2.3651123046875,-20.57647705078125,10.24627685546875
-0.296630859375,0.410888671875,0.026611328125,19.4244384765625,-10.71929931640625,20.31707763671875
-0.3203125,0.4112548828125,0.0521240234375,37.08648681640625,0.74005126953125,29.205322265625
-0.3519287109375,0.417724609375,0.0889892578125,55.0079345703125,13.48876953125,37.33062744140625
-0.38916015625,0.423583984375,0.128662109375,72.4029541015625,26.86309814453125,45.75347900390625
-0.424560546875,0.426513671875,0.1669921875,89.2181396484375,40.59600830078125,54.38995361328125
-0.465087890625,0.4346923828125,0.209716796875,105.224609375,54.72564697265625,63.01116943359375
-0.51416015625,0.449462890625,0.2601318359375,120.17822265625,70.12176513671875,71.35009765625
-0.572265625,0.4674072265625,0.31787109375,134.21630859375,87.2802734375,79.56695556640625
-0.6358642578125,0.487548828125,0.3817138671875,147.51434326171875,106.52923583984375,88.0584716796875
-0.7041015625,0.500244140625,0.448486328125,159.759521484375,127.57110595703125,97.4884033203125
-0.7745361328125,0.505126953125,0.5196533203125,170.7763671875,151.0009765625,108.42132568359375
-0.850341796875,0.5032958984375,0.5986328125,180.084228515625,176.6815185546875,121.54388427734375
-0.931396484375,0.5018310546875,0.682861328125,186.5081787109375,204.1778564453125,135.65826416015625
-1.0228271484375,0.5057373046875,0.7701416015625,189.7735595703125,233.72650146484375,149.90234375
-1.1380615234375,0.5262451171875,0.842529296875,188.56048583984375,249.99237060546875,163.9251708984375
-1.287353515625,0.5234375,0.8831787109375,180.79376220703125,249.99237060546875,178.96270751953125
-1.4744873046875,0.519775390625,0.903076171875,171.69952392578125,249.99237060546875,192.05474853515625
-1.7464599609375,0.5186767578125,0.9573974609375,161.8194580078125,249.99237060546875,202.178955078125
-1.9580078125,0.4588623046875,1.0811767578125,149.658203125,249.99237060546875,205.8868408203125
-1.8389892578125,0.3397216796875,1.2117919921875,135.49041748046875,249.99237060546875,197.16644287109375
-1.6982421875,0.2686767578125,1.2095947265625,125.25177001953125,249.99237060546875,175.750732421875
-1.7208251953125,0.23193359375,1.149658203125,112.9150390625,249.99237060546875,153.51104736328125
-1.7320556640625,0.2242431640625,1.11083984375,105.59844970703125,249.99237060546875,132.14874267578125
-1.5987548828125,0.2022705078125,1.0565185546875,107.50579833984375,249.99237060546875,119.71282958984375
-1.456298828125,0.0966796875,0.9898681640625,106.33087158203125,248.291015625,126.10626220703125
-1.3883056640625,0.0281982421875,0.9083251953125,100.3875732421875,203.704833984375,140.38848876953125
-1.360107421875,-0.0001220703125,0.796875,94.61212158203125,167.73223876953125,152.51922607421875
-1.371337890625,-0.0341796875,0.7642822265625,86.700439453125,160.27069091796875,157.27996826171875
-1.3515625,-0.0625,0.7574462890625,75.20294189453125,159.271240234375,152.19879150390625
-1.3106689453125,-0.0640869140625,0.734375,60.93597412109375,152.83966064453125,140.72418212890625
-1.280517578125,-0.04541015625,0.701416015625,44.96002197265625,141.16668701171875,125.885009765625
-1.26416015625,-0.0098876953125,0.6627197265625,30.31158447265625,128.39508056640625,109.7259521484375
-1.249755859375,0.0389404296875,0.642578125,17.49420166015625,118.53790283203125,94.6502685546875
-1.233642578125,0.0797119140625,0.625,7.8125,113.09814453125,83.7554931640625
-1.1661376953125,0.1044921875,0.6082763671875,1.64794921875,109.06982421875,81.01654052734375
-1.1007080078125,0.1048583984375,0.5545654296875,-4.00543212890625,105.65185546875,87.40234375
-1.0506591796875,0.109375,0.484130859375,-7.53021240234375,110.0616455078125,96.3287353515625
-1.04931640625,0.111328125,0.465087890625,-7.843017578125,128.7689208984375,105.70526123046875
-1.0303955078125,0.1109619140625,0.4840087890625,-7.9345703125,150.421142578125,109.344482421875
-0.9822998046875,0.1099853515625,0.5068359375,-7.37762451171875,159.66796875,106.92596435546875
-0.963134765625,0.1180419921875,0.5267333984375,-8.4686279296875,156.59332275390625,101.287841796875
-0.965087890625,0.1260986328125,0.53466796875,-7.87353515625,140.07568359375,93.57452392578125
-0.96337890625,0.129638671875,0.5257568359375,-2.54058837890625,114.31884765625,84.11407470703125
-0.947021484375,0.10986328125,0.5181884765625,6.11114501953125,91.48406982421875,77.7740478515625
-0.9111328125,0.0799560546875,0.507080078125,17.27294921875,73.93646240234375,75.87432861328125
-0.8902587890625,0.048583984375,0.489501953125,29.1595458984375,63.05694580078125,78.2318115234375
-0.890869140625,0.0208740234375,0.484375,41.28265380859375,59.66949462890625,82.43560791015625
-0.9051513671875,-0.000244140625,0.4998779296875,53.26080322265625,62.103271484375,84.81597900390625
-0.9111328125,-0.0177001953125,0.5364990234375,63.232421875,66.67327880859375,83.18328857421875
-0.915283203125,-0.025390625,0.593505859375,68.55010986328125,66.39862060546875,78.49884033203125
-0.930419921875,-0.0299072265625,0.6114501953125,71.73919677734375,55.39703369140625,71.71630859375
-0.9556884765625,-0.0283203125,0.619140625,76.30157470703125,38.99383544921875,62.4237060546875
-0.9830322265625,-0.026123046875,0.6265869140625,82.3211669921875,21.96502685546875,51.38397216796875
-1.0093994140625,-0.0224609375,0.6380615234375,89.34783935546875,7.69805908203125,40.09246826171875
-1.0252685546875,-0.01806640625,0.65087890625,95.9625244140625,-1.83868408203125,29.74700927734375
-1.037841796875,-0.017333984375,0.6602783203125,101.00555419921875,-5.80596923828125,21.42333984375
-1.0556640625,-0.01318359375,0.679931640625,104.339599609375,-5.37872314453125,14.33563232421875
-1.0985107421875,-0.001220703125,0.7069091796875,104.7210693359375,-3.11279296875,6.2713623046875
-1.120361328125,0.006591796875,0.7393798828125,101.959228515625,-1.47247314453125,-2.5787353515625
-1.1295166015625,0.01123046875,0.7733154296875,96.5576171875,-3.5247802734375,-10.76507568359375
-1.1417236328125,0.0120849609375,0.798583984375,89.17999267578125,-12.2833251953125,-18.341064453125
-1.1513671875,-0.0003662109375,0.8065185546875,79.09393310546875,-27.73284912109375,-26.14593505859375
-1.1519775390625,-0.0125732421875,0.81201171875,69.671630859375,-46.7071533203125,-33.2183837890625
-1.1705322265625,-0.0233154296875,0.802734375,58.69293212890625,-67.8253173828125,-38.74969482421875
-1.17919921875,-0.022216796875,0.7838134765625,45.501708984375,-87.5701904296875,-43.80035400390625
-1.1790771484375,-0.0089111328125,0.7581787109375,29.09088134765625,-103.0120849609375,-48.3245849609375
-1.1796875,0.014404296875,0.7335205078125,10.42938232421875,-113.128662109375,-52.0782470703125
-1.191162109375,0.0469970703125,0.708740234375,-9.429931640625,-119.049072265625,-55.8929443359375
-1.2080078125,0.0916748046875,0.6826171875,-28.8543701171875,-122.48992919921875,-60.36376953125
-1.223876953125,0.1446533203125,0.659423828125,-46.02813720703125,-124.45068359375,-65.17791748046875
-1.2327880859375,0.2021484375,0.64501953125,-59.9822998046875,-126.06048583984375,-69.86236572265625
-1.245361328125,0.2647705078125,0.6439208984375,-69.8394775390625,-130.126953125,-73.69232177734375
-1.266845703125,0.3240966796875,0.639404296875,-74.50103759765625,-138.4429931640625,-75.84381103515625
-1.2908935546875,0.3768310546875,0.612548828125,-75.0885009765625,-149.8870849609375,-76.07269287109375
-1.302734375,0.415283203125,0.572021484375,-72.95989990234375,-159.49249267578125,-75.11138916015625
-1.3011474609375,0.4390869140625,0.537109375,-67.92449951171875,-164.794921875,-74.45526123046875
-1.2906494140625,0.4539794921875,0.518310546875,-60.29510498046875,-166.74041748046875,-74.88250732421875
-1.2789306640625,0.46875,0.515869140625,-50.65155029296875,-168.29681396484375,-78.582763671875
-1.2762451171875,0.4903564453125,0.52880859375,-38.93280029296875,-170.5169677734375,-84.89990234375
-1.2784423828125,0.498291015625,0.550537109375,-27.1759033203125,-174.59869384765625,-89.85137939453125
-1.281005859375,0.51416015625,0.576171875,-15.17486572265625,-180.2215576171875,-97.20611572265625
-1.283447265625,0.517822265625,0.6002197265625,-4.2724609375,-185.41717529296875,-101.837158203125
-1.2794189453125,0.5177001953125,0.6329345703125,4.50897216796875,-190.399169921875,-104.8736572265625
-1.2784423828125,0.5123291015625,0.663818359375,11.58905029296875,-196.32720947265625,-106.63604736328125
-1.2762451171875,0.4989013671875,0.6864013671875,16.85333251953125,-203.02581787109375,-107.1929931640625
-1.267578125,0.48583984375,0.7080078125,19.84405517578125,-209.54132080078125,-107.7423095703125
-1.25830078125,0.46875,0.7269287109375,20.32470703125,-216.72821044921875,-107.00225830078125
-1.2449951171875,0.4500732421875,0.7431640625,18.2647705078125,-224.334716796875,-104.46929931640625
-1.22509765625,0.4306640625,0.7567138671875,13.4124755859375,-230.7281494140625,-100.82244873046875
-1.201416015625,0.40869140625,0.76904296875,5.2490234375,-235.3668212890625,-97.14508056640625
-1.1739501953125,0.388916015625,0.7803955078125,-6.7138671875,-238.5406494140625,-94.085693359375
-1.15185546875,0.377685546875,0.79443359375,-22.08709716796875,-239.78424072265625,-91.48406982421875
-1.1295166015625,0.3663330078125,0.8031005859375,-39.8712158203125,-239.044189453125,-88.82904052734375
-1.109130859375,0.359619140625,0.8094482421875,-58.93707275390625,-236.03057861328125,-86.1663818359375
-1.0858154296875,0.3643798828125,0.812255859375,-77.8350830078125,-230.0567626953125,-83.19091796875
-1.0665283203125,0.3795166015625,0.8134765625,-96.19903564453125,-221.49658203125,-79.803466796875
-1.052978515625,0.3939208984375,0.8043212890625,-112.97607421875,-213.2415771484375,-76.08795166015625
-1.0325927734375,0.407958984375,0.7838134765625,-126.922607421875,-206.6192626953125,-73.1201171875
-1.01220703125,0.419921875,0.7606201171875,-138.71002197265625,-200.38604736328125,-70.5718994140625
-0.9913330078125,0.43408203125,0.7374267578125,-147.86529541015625,-193.9239501953125,-67.02423095703125
-0.9617919921875,0.44482421875,0.7161865234375,-154.3121337890625,-186.2030029296875,-63.14849853515625
-0.9368896484375,0.46484375,0.695556640625,-158.42437744140625,-177.520751953125,-59.356689453125
-0.90966796875,0.47412109375,0.67529296875,-160.0799560546875,-168.23577880859375,-56.4727783203125
-0.8826904296875,0.4779052734375,0.6505126953125,-159.66033935546875,-160.0189208984375,-54.3060302734375
-0.849365234375,0.477783203125,0.615966796875,-158.60748291015625,-153.564453125,-51.666259765625
-0.8070068359375,0.470703125,0.5770263671875,-156.82220458984375,-149.29962158203125,-48.1109619140625
-0.763671875,0.45849609375,0.5328369140625,-153.73992919921875,-146.0113525390625,-44.59381103515625
-0.716796875,0.4483642578125,0.490234375,-148.42987060546875,-141.79229736328125,-42.3736572265625
-0.6739501953125,0.4478759765625,0.4482421875,-140.8233642578125,-134.74273681640625,-43.0908203125
-0.62451171875,0.4420166015625,0.4068603515625,-131.65283203125,-125.58746337890625,-43.20526123046875
-0.5703125,0.4332275390625,0.3623046875,-120.9869384765625,-118.46923828125,-42.42706298828125
-0.5185546875,0.4290771484375,0.3245849609375,-109.4512939453125,-112.78533935546875,-41.32080078125
-0.4735107421875,0.4210205078125,0.2926025390625,-97.35107421875,-106.97174072265625,-39.6881103515625
-0.431884765625,0.413330078125,0.265380859375,-85.3729248046875,-100.76141357421875,-37.71209716796875
-0.3990478515625,0.4036865234375,0.2396240234375,-73.8372802734375,-94.26116943359375,-35.2325439453125
-0.3726806640625,0.4041748046875,0.216552734375,-62.98828125,-87.188720703125,-31.82220458984375
-0.3544921875,0.4085693359375,0.199951171875,-52.9632568359375,-79.50592041015625,-27.19879150390625
-0.3448486328125,0.418212890625,0.1904296875,-43.26629638671875,-71.3043212890625,-21.392822265625
-0.3424072265625,0.4339599609375,0.1864013671875,-33.50067138671875,-62.76702880859375,-14.09149169921875
-0.346435546875,0.4476318359375,0.181396484375,-23.8037109375,-54.17633056640625,-5.2642822265625
-0.3499755859375,0.451171875,0.1734619140625,-13.6871337890625,-44.85321044921875,4.55474853515625
-0.3507080078125,0.44384765625,0.1607666015625,-2.7923583984375,-34.11865234375,14.48822021484375
-0.3521728515625,0.4317626953125,0.1512451171875,9.19342041015625,-21.70562744140625,23.9410400390625
-0.363525390625,0.4305419921875,0.158203125,22.15576171875,-7.293701171875,32.1197509765625
-0.389892578125,0.4404296875,0.1905517578125,35.89630126953125,8.97216796875,39.10064697265625
-0.4261474609375,0.45947265625,0.23681640625,50.60577392578125,26.55029296875,45.9442138671875
-0.4666748046875,0.46923828125,0.28369140625,65.02532958984375,45.47882080078125,53.985595703125
-0.5135498046875,0.4742431640625,0.3338623046875,78.45306396484375,65.49072265625,63.690185546875
-0.57470703125,0.48095703125,0.394775390625,91.2322998046875,86.64703369140625,74.371337890625
-0.6422119140625,0.4945068359375,0.4571533203125,102.76031494140625,109.56573486328125,85.18218994140625
-0.7166748046875,0.50830078125,0.5255126953125,112.84637451171875,135.16998291015625,96.0235595703125
-0.786865234375,0.515869140625,0.588623046875,122.36785888671875,161.865234375,106.50634765625
-0.8468017578125,0.5223388671875,0.6268310546875,130.60760498046875,189.36920166015625,116.729736328125
-0.9034423828125,0.4981689453125,0.656982421875,136.383056640625,221.16851806640625,126.76239013671875
-0.9537353515625,0.4736328125,0.697021484375,141.80755615234375,249.99237060546875,133.59832763671875
-1.01318359375,0.46484375,0.7528076171875,146.728515625,249.99237060546875,135.986328125
-1.125732421875,0.4774169921875,0.8037109375,145.77484130859375,249.99237060546875,136.9781494140625
-1.28955078125,0.4847412109375,0.8583984375,138.09967041015625,249.99237060546875,140.594482421875
-1.430419921875,0.416748046875,0.9544677734375,128.387451171875,249.99237060546875,145.4925537109375
-1.370361328125,0.310302734375,1.034423828125,119.16351318359375,249.99237060546875,144.50836181640625
-1.26513671875,0.240478515625,1.041259765625,106.10198974609375,249.99237060546875,135.93292236328125
-1.2904052734375,0.2318115234375,0.9835205078125,87.127685546875,249.99237060546875,127.26593017578125
-1.3409423828125,0.2283935546875,0.954833984375,72.69287109375,249.99237060546875,117.69866943359375
-1.3016357421875,0.2406005859375,0.9107666015625,65.65093994140625,249.99237060546875,108.917236328125
-1.225830078125,0.225341796875,0.8382568359375,55.6488037109375,243.84307861328125,113.38043212890625
-1.21826171875,0.1942138671875,0.7510986328125,41.4276123046875,224.57122802734375,127.0751953125
-1.2386474609375,0.18310546875,0.6934814453125,29.22821044921875,213.79852294921875,138.916015625
-1.24365234375,0.1556396484375,0.673583984375,17.2882080078125,211.2274169921875,146.15631103515625
-1.2193603515625,0.1231689453125,0.64599609375,5.2490234375,204.81109619140625,146.18682861328125
-1.2041015625,0.11669921875,0.596923828125,-7.17926025390625,188.5223388671875,140.0909423828125
-1.201171875,0.126953125,0.5640869140625,-19.22607421875,166.107177734375,131.011962890625
-1.2030029296875,0.1390380859375,0.5316162109375,-27.8472900390625,140.07568359375,120.208740234375
-1.1748046875,0.140869140625,0.4951171875,-33.3709716796875,115.142822265625,110.4278564453125
-1.130126953125,0.1351318359375,0.453857421875,-37.10174560546875,96.0540771484375,104.06494140625
-1.07958984375,0.1309814453125,0.40185546875,-43.1060791015625,82.6416015625,101.81427001953125
-1.061767578125,0.13818359375,0.3487548828125,-48.91204833984375,76.873779296875,103.75213623046875
-1.061767578125,0.1390380859375,0.322509765625,-54.22210693359375,80.19256591796875,107.3150634765625
-1.05126953125,0.1334228515625,0.31201171875,-59.56268310546875,88.21868896484375,109.96246337890625
-1.029296875,0.13232421875,0.30615234375,-65.22369384765625,96.71783447265625,109.8175048828125
-1.009033203125,0.14306640625,0.303466796875,-71.75445556640625,99.81536865234375,107.65838623046875
-1.00634765625,0.1612548828125,0.281982421875,-77.41546630859375,96.32110595703125,104.7821044921875
-1.0078125,0.18359375,0.26171875,-79.87213134765625,90.50750732421875,101.63116455078125
-1.0035400390625,0.2052001953125,0.23681640625,-78.9337158203125,84.64813232421875,98.64044189453125
-0.9832763671875,0.2178955078125,0.21044921875,-74.432373046875,80.19256591796875,96.710205078125
-0.95751953125,0.2232666015625,0.18115234375,-67.3370361328125,77.99530029296875,97.5494384765625
-0.9581298828125,0.2271728515625,0.1591796875,-57.4493408203125,79.87213134765625,100.1739501953125
-0.9638671875,0.222900390625,0.1585693359375,-45.257568359375,85.68572998046875,102.51617431640625
-0.9696044921875,0.21337890625,0.1690673828125,-32.44781494140625,92.93365478515625,103.50799560546875
-0.9654541015625,0.1966552734375,0.189208984375,-20.82061767578125,100.15106201171875,102.630615234375
-0.965576171875,0.1865234375,0.216796875,-11.505126953125,105.1177978515625,99.52545166015625
-0.9754638671875,0.1851806640625,0.2515869140625,-3.56292724609375,105.75103759765625,95.3521728515625
-0.9837646484375,0.1805419921875,0.286865234375,4.55474853515625,101.60064697265625,90.7135009765625
-0.9857177734375,0.1702880859375,0.3172607421875,13.0462646484375,93.6126708984375,85.4339599609375
-0.986572265625,0.1614990234375,0.342529296875,21.3470458984375,84.3505859375,79.88739013671875
-0.9786376953125,0.1429443359375,0.3604736328125,28.35845947265625,77.99530029296875,75.23345947265625
-0.9862060546875,0.1279296875,0.3768310546875,33.48541259765625,76.24053955078125,72.07489013671875
-1.0081787109375,0.11865234375,0.4046630859375,35.88104248046875,79.20074462890625,69.60296630859375
-1.033203125,0.1134033203125,0.4326171875,37.02545166015625,84.9761962890625,67.07000732421875
-1.05859375,0.1153564453125,0.477294921875,36.92626953125,92.620849609375,64.14031982421875
-1.07421875,0.1231689453125,0.517822265625,36.49139404296875,96.7254638671875,60.5926513671875
-1.0882568359375,0.1328125,0.5455322265625,38.26141357421875,96.12274169921875,55.61065673828125
-1.0823974609375,0.13671875,0.5789794921875,42.327880859375,91.522216796875,49.224853515625
-1.0736083984375,0.129150390625,0.6141357421875,48.248291015625,82.64923095703125,41.34368896484375
-1.0615234375,0.1097412109375,0.6505126953125,54.92401123046875,70.4498291015625,31.8450927734375
-1.0543212890625,0.08154296875,0.6865234375,60.2569580078125,57.24334716796875,20.72906494140625
-1.0421142578125,0.060546875,0.72705078125,61.72943115234375,44.586181640625,9.46807861328125
-1.0322265625,0.025390625,0.7598876953125,57.44171142578125,31.95953369140625,-0.9002685546875
-1.0369873046875,-0.006103515625,0.771484375,46.74530029296875,19.55413818359375,-10.68115234375
-1.0484619140625,-0.0147705078125,0.7681884765625,31.01348876953125,9.21630859375,-19.989013671875
-1.0589599609375,-0.006591796875,0.7598876953125,11.749267578125,1.99127197265625,-28.6712646484375
-1.0626220703125,0.026123046875,0.7548828125,-8.8958740234375,-3.23486328125,-36.39984130859375
-1.05908203125,0.0809326171875,0.74609375,-28.22113037109375,-8.58306884765625,-42.388916015625
-1.048583984375,0.1474609375,0.7413330078125,-45.5169677734375,-14.6942138671875,-46.56219482421875
-1.038818359375,0.217529296875,0.7452392578125,-60.791015625,-23.223876953125,-49.75128173828125
-1.033935546875,0.2767333984375,0.7442626953125,-71.49505615234375,-35.614013671875,-52.61993408203125
-1.0303955078125,0.322021484375,0.725830078125,-77.3773193359375,-50.55999755859375,-55.59539794921875
-1.032958984375,0.3577880859375,0.7154541015625,-80.77239990234375,-65.093994140625,-57.830810546875
-1.047119140625,0.3834228515625,0.705810546875,-83.3892822265625,-80.02471923828125,-59.356689453125
-1.0687255859375,0.3994140625,0.69873046875,-84.716796875,-94.68841552734375,-60.546875
-1.095458984375,0.40869140625,0.6883544921875,-84.81597900390625,-108.97064208984375,-61.4013671875
-1.1259765625,0.416015625,0.681396484375,-84.4879150390625,-122.42889404296875,-62.23297119140625
-1.15673828125,0.4224853515625,0.677490234375,-83.80126953125,-134.52911376953125,-63.40789794921875
-1.182861328125,0.433837890625,0.6922607421875,-83.465576171875,-146.15631103515625,-65.19317626953125
-1.211181640625,0.4405517578125,0.704833984375,-82.8857421875,-160.0189208984375,-67.291259765625
-1.231201171875,0.450439453125,0.707275390625,-81.15386962890625,-175.9796142578125,-70.770263671875
-1.24755859375,0.47607421875,0.71240234375,-78.81927490234375,-191.84112548828125,-75.34027099609375
-1.2486572265625,0.4986572265625,0.7137451171875,-77.07977294921875,-206.3140869140625,-79.0252685546875
-1.244384765625,0.51953125,0.714599609375,-77.47650146484375,-216.63665771484375,-85.1287841796875
-1.2366943359375,0.5516357421875,0.7235107421875,-78.4454345703125,-224.00665283203125,-97.11456298828125
-1.21630859375,0.5911865234375,0.7344970703125,-76.934814453125,-231.42242431640625,-106.95648193359375
-1.187744140625,0.606689453125,0.7542724609375,-75.50811767578125,-235.77880859375,-105.46875
-1.1646728515625,0.6175537109375,0.78515625,-74.92828369140625,-237.4114990234375,-100.921630859375
-1.1424560546875,0.6309814453125,0.8172607421875,-76.0498046875,-237.2283935546875,-97.076416015625
-1.1192626953125,0.63818359375,0.8502197265625,-78.7353515625,-236.9842529296875,-93.0328369140625
-1.102783203125,0.644775390625,0.8765869140625,-82.611083984375,-236.67144775390625,-88.11187744140625
-1.0914306640625,0.656982421875,0.9002685546875,-87.7532958984375,-236.14501953125,-82.57293701171875
-1.0828857421875,0.669189453125,0.9156494140625,-93.89495849609375,-235.40496826171875,-76.5380859375
-1.076416015625,0.6876220703125,0.9302978515625,-99.7467041015625,-233.8409423828125,-70.5718994140625
-1.0721435546875,0.7047119140625,0.94677734375,-105.8502197265625,-230.255126953125,-63.0950927734375
-1.0667724609375,0.7161865234375,0.972900390625,-112.69378662109375,-225.77667236328125,-54.05426025390625
-1.06298828125,0.731201171875,1.001708984375,-120.1934814453125,-223.358154296875,-46.539306640625
-1.0611572265625,0.7432861328125,1.0191650390625,-127.9449462890625,-223.24371337890625,-41.67938232421875
-1.05322265625,0.752685546875,1.03564453125,-135.39886474609375,-223.36578369140625,-38.33770751953125
-1.04150390625,0.75439453125,1.041259765625,-142.06695556640625,-222.46551513671875,-35.83526611328125
-1.02490234375,0.744873046875,1.0274658203125,-146.8658447265625,-221.18377685546875,-35.2935791015625
-1.0018310546875,0.7381591796875,1.0006103515625,-150.08544921875,-218.63555908203125,-36.834716796875
-0.9720458984375,0.7313232421875,0.9747314453125,-152.77099609375,-211.72332763671875,-37.0330810546875
-0.9381103515625,0.718994140625,0.93994140625,-155.20477294921875,-201.904296875,-34.3475341796875
-0.896728515625,0.7108154296875,0.9058837890625,-156.62384033203125,-191.91741943359375,-30.55572509765625
-0.8538818359375,0.7117919921875,0.8743896484375,-156.99005126953125,-182.55615234375,-26.611328125
-0.8106689453125,0.699951171875,0.8353271484375,-155.79986572265625,-176.78070068359375,-21.5301513671875
-0.765625,0.696044921875,0.7982177734375,-152.3284912109375,-173.85101318359375,-14.99176025390625
-0.7314453125,0.6904296875,0.7613525390625,-147.27783203125,-172.46246337890625,-7.69805908203125
-0.697509765625,0.6822509765625,0.72265625,-140.1519775390625,-172.6531982421875,-0.06103515625
-0.6656494140625,0.67578125,0.6787109375,-131.0272216796875,-173.31695556640625,5.889892578125
-0.638671875,0.6632080078125,0.6343994140625,-120.849609375,-172.49298095703125,9.84954833984375
-0.6138916015625,0.64599609375,0.594970703125,-109.82513427734375,-169.952392578125,12.39013671875
-0.589599609375,0.62744140625,0.560302734375,-98.03009033203125,-166.64886474609375,14.0533447265625
-0.56884765625,0.6102294921875,0.529296875,-85.9375,-163.116455078125,15.51055908203125
-0.5482177734375,0.5943603515625,0.5040283203125,-74.371337890625,-159.24835205078125,17.17376708984375
-0.53173828125,0.5799560546875,0.4862060546875,-63.56048583984375,-154.62493896484375,19.78302001953125
-0.5166015625,0.573974609375,0.471435546875,-53.39813232421875,-149.383544921875,23.773193359375
-0.50244140625,0.5687255859375,0.4578857421875,-44.38018798828125,-142.730712890625,29.89959716796875
-0.4896240234375,0.56103515625,0.438232421875,-36.3311767578125,-134.45281982421875,38.360595703125
-0.4755859375,0.5523681640625,0.4083251953125,-29.59442138671875,-124.176025390625,49.4537353515625
-0.4619140625,0.535888671875,0.38232421875,-25.09307861328125,-111.9384765625,63.629150390625
-0.4505615234375,0.5159912109375,0.3548583984375,-21.58355712890625,-98.96087646484375,79.67376708984375
-0.440185546875,0.494384765625,0.328369140625,-18.82171630859375,-85.89935302734375,96.7254638671875
-0.4359130859375,0.4754638671875,0.302490234375,-16.7694091796875,-73.3795166015625,113.7847900390625
-0.4320068359375,0.457763671875,0.2784423828125,-14.64080810546875,-60.72998046875,130.523681640625
-0.4312744140625,0.444091796875,0.2547607421875,-11.60430908203125,-47.882080078125,146.14105224609375
-0.43701171875,0.429931640625,0.233642578125,-7.4005126953125,-36.44561767578125,160.66741943359375
-0.443603515625,0.41552734375,0.221435546875,-1.678466796875,-25.93231201171875,173.33221435546875
-0.4512939453125,0.3994140625,0.2130126953125,5.91278076171875,-16.204833984375,183.685302734375
-0.4593505859375,0.376220703125,0.2115478515625,15.31982421875,-6.35528564453125,191.5283203125
-0.47265625,0.350830078125,0.226806640625,26.39007568359375,3.41796875,196.46453857421875
-0.4921875,0.3280029296875,0.2550048828125,39.4134521484375,12.94708251953125,198.760986328125
-0.51220703125,0.303466796875,0.2900390625,53.01666259765625,22.51434326171875,198.91357421875
-0.5377197265625,0.2802734375,0.3365478515625,64.910888671875,32.50885009765625,197.540283203125
-0.56640625,0.262451171875,0.3880615234375,73.78387451171875,42.877197265625,195.465087890625
-0.5970458984375,0.2548828125,0.4398193359375,79.315185546875,54.75616455078125,193.8934326171875
-0.6405029296875,0.25732421875,0.5059814453125,81.512451171875,69.122314453125,194.61822509765625
-0.7027587890625,0.2646484375,0.582763671875,81.64215087890625,82.61871337890625,199.19586181640625
-0.779296875,0.2777099609375,0.650390625,81.50482177734375,96.73309326171875,204.85687255859375
-0.8697509765625,0.275390625,0.7283935546875,81.4971923828125,116.1346435546875,214.59197998046875
-0.9674072265625,0.2564697265625,0.7957763671875,80.657958984375,136.29913330078125,231.49871826171875
-1.0709228515625,0.234130859375,0.8486328125,77.73590087890625,154.02984619140625,249.99237060546875
-1.17138671875,0.20068359375,0.8804931640625,70.27435302734375,169.677734375,249.99237060546875
-1.27392578125,0.1639404296875,0.8848876953125,60.14251708984375,184.2498779296875,249.99237060546875
-1.371337890625,0.13134765625,0.8533935546875,47.11151123046875,199.310302734375,249.99237060546875
-1.467529296875,0.0869140625,0.825439453125,31.2347412109375,218.26171875,249.99237060546875
-1.5556640625,0.0494384765625,0.7734375,16.07513427734375,235.1226806640625,249.99237060546875
-1.60546875,0.01123046875,0.7314453125,1.0986328125,249.99237060546875,249.99237060546875
-1.5936279296875,-0.02197265625,0.689697265625,-10.88714599609375,249.99237060546875,249.99237060546875
-1.5328369140625,-0.0631103515625,0.658447265625,-21.64459228515625,249.99237060546875,249.99237060546875
-1.48291015625,-0.079345703125,0.6416015625,-29.02984619140625,249.99237060546875,249.99237060546875
-1.4654541015625,-0.087890625,0.6138916015625,-35.369873046875,249.99237060546875,249.99237060546875
-1.4586181640625,-0.1043701171875,0.5828857421875,-37.17803955078125,241.85943603515625,240.44036865234375
-1.421875,-0.133544921875,0.5667724609375,-34.5611572265625,224.80010986328125,222.61810302734375
-1.368896484375,-0.1668701171875,0.5633544921875,-29.30450439453125,205.7342529296875,207.5653076171875
-1.3482666015625,-0.1949462890625,0.5433349609375,-24.10125732421875,183.7158203125,197.05963134765625
-1.3438720703125,-0.21142578125,0.514892578125,-18.73016357421875,162.19329833984375,189.32342529296875
-1.3531494140625,-0.2222900390625,0.4971923828125,-15.5181884765625,145.98846435546875,183.63189697265625
-1.347900390625,-0.23828125,0.4771728515625,-14.923095703125,136.5966796875,179.26788330078125
-1.339599609375,-0.2408447265625,0.4658203125,-18.88275146484375,133.11767578125,175.628662109375
-1.3419189453125,-0.2327880859375,0.455078125,-27.42767333984375,131.134033203125,170.08209228515625
-1.3524169921875,-0.2154541015625,0.4359130859375,-38.787841796875,128.9215087890625,163.2232666015625
-1.35546875,-0.190185546875,0.42138671875,-51.10931396484375,126.7242431640625,157.53173828125
-1.365234375,-0.15869140625,0.3916015625,-62.76702880859375,124.3133544921875,153.72467041015625
-1.359619140625,-0.1260986328125,0.3582763671875,-71.35772705078125,122.4212646484375,152.41241455078125
-1.3548583984375,-0.0970458984375,0.32861328125,-75.69122314453125,120.8343505859375,153.17535400390625
-1.35546875,-0.0704345703125,0.3023681640625,-76.08795166015625,118.6981201171875,154.65545654296875
-1.355712890625,-0.0452880859375,0.28173828125,-73.98223876953125,116.39404296875,156.41021728515625
-1.3485107421875,-0.030517578125,0.267578125,-70.709228515625,115.020751953125,158.48541259765625
-1.3372802734375,-0.0252685546875,0.2569580078125,-67.535400390625,114.41802978515625,159.37042236328125
-1.333984375,-0.0274658203125,0.250732421875,-64.84222412109375,113.46435546875,157.85980224609375
-1.3331298828125,-0.0335693359375,0.2437744140625,-62.15667724609375,111.51885986328125,153.14483642578125
-1.3277587890625,-0.0443115234375,0.2349853515625,-59.37957763671875,109.832763671875,146.76666259765625
-1.3165283203125,-0.0523681640625,0.225830078125,-56.69403076171875,110.015869140625,140.12908935546875
-1.3082275390625,-0.056396484375,0.2247314453125,-54.01611328125,112.518310546875,134.65118408203125
-1.2945556640625,-0.063232421875,0.226806640625,-51.03302001953125,116.02783203125,130.86700439453125
-1.285888671875,-0.06787109375,0.234130859375,-47.38616943359375,119.68231201171875,128.51715087890625
-1.2733154296875,-0.083251953125,0.2354736328125,-42.93060302734375,123.98529052734375,126.91497802734375
-1.27001953125,-0.10009765625,0.24169921875,-38.4368896484375,130.4168701171875,125.06866455078125
-1.25390625,-0.1207275390625,0.2615966796875,-34.576416015625,138.48876953125,121.6888427734375
-1.2420654296875,-0.1383056640625,0.2772216796875,-31.31103515625,145.31707763671875,115.54718017578125
-1.24462890625,-0.147705078125,0.2861328125,-28.7017822265625,150.3753662109375,106.95648193359375
-1.234130859375,-0.1494140625,0.3154296875,-26.0009765625,153.961181640625,97.5189208984375
-1.2218017578125,-0.1568603515625,0.3297119140625,-22.3846435546875,154.73175048828125,87.8448486328125
-1.206787109375,-0.1590576171875,0.3453369140625,-17.34161376953125,154.42657470703125,77.94952392578125
-1.2003173828125,-0.154052734375,0.3575439453125,-11.71875,154.53338623046875,68.48907470703125
-1.178466796875,-0.1463623046875,0.3795166015625,-4.9896240234375,156.24237060546875,59.04388427734375
-1.141357421875,-0.13525390625,0.40966796875,1.30462646484375,159.09576416015625,49.9267578125
-1.1114501953125,-0.1219482421875,0.456787109375,5.10406494140625,160.36224365234375,41.259765625
-1.0914306640625,-0.106689453125,0.5003662109375,7.38525390625,155.31158447265625,31.97479248046875
-1.07861328125,-0.088134765625,0.53857421875,9.124755859375,145.01190185546875,21.942138671875
-1.0592041015625,-0.0738525390625,0.5743408203125,9.45281982421875,133.392333984375,12.33673095703125
-1.0416259765625,-0.0594482421875,0.6126708984375,9.01031494140625,122.161865234375,3.62396240234375
-1.0224609375,-0.0430908203125,0.6656494140625,6.89697265625,111.0992431640625,-3.448486328125
-1.0118408203125,-0.03125,0.7108154296875,3.1585693359375,99.5025634765625,-8.880615234375
-1.0057373046875,-0.0216064453125,0.7421875,-2.73895263671875,89.263916015625,-13.38958740234375
-1.0015869140625,-0.00927734375,0.775390625,-12.35198974609375,83.06884765625,-16.79229736328125
-1.001220703125,0.006591796875,0.8056640625,-25.0091552734375,80.34515380859375,-19.43206787109375
-1.0029296875,0.0269775390625,0.82763671875,-39.5965576171875,79.1015625,-21.78192138671875
-1.0076904296875,0.0565185546875,0.8455810546875,-54.7027587890625,77.59857177734375,-24.46746826171875
-1.0133056640625,0.091552734375,0.8609619140625,-68.3441162109375,74.34844970703125,-27.50396728515625
-1.0172119140625,0.1304931640625,0.8765869140625,-78.83453369140625,68.87054443359375,-30.83038330078125
-1.0189208984375,0.168701171875,0.88330078125,-85.357666015625,61.46240234375,-34.55352783203125
-1.0174560546875,0.2039794921875,0.888671875,-88.348388671875,51.9561767578125,-38.51318359375
-1.012939453125,0.2335205078125,0.89599609375,-88.1195068359375,39.93988037109375,-42.48809814453125
-1.00927734375,0.2576904296875,0.9012451171875,-85.15167236328125,25.47454833984375,-47.05810546875
-1.0106201171875,0.2724609375,0.9051513671875,-79.87213134765625,10.162353515625,-51.9866943359375
-1.0146484375,0.2796630859375,0.9034423828125,-73.7457275390625,-5.5084228515625,-56.80084228515625
-1.01806640625,0.2864990234375,0.902099609375,-67.9473876953125,-20.6298828125,-61.80572509765625
-1.0247802734375,0.290283203125,0.89990234375,-63.3392333984375,-34.9884033203125,-66.44439697265625
-1.0318603515625,0.29541015625,0.90185546875,-59.814453125,-48.7060546875,-70.70159912109375
-1.037841796875,0.30810546875,0.9169921875,-57.88421630859375,-62.78228759765625,-75.225830078125
-1.046630859375,0.3197021484375,0.9224853515625,-57.42645263671875,-78.2928466796875,-80.87921142578125
-1.0506591796875,0.331298828125,0.9185791015625,-57.5408935546875,-96.1761474609375,-86.93695068359375
-1.0479736328125,0.3402099609375,0.9168701171875,-58.73870849609375,-117.034912109375,-91.01104736328125
-1.0516357421875,0.3516845703125,0.888427734375,-59.85260009765625,-140.48004150390625,-91.88079833984375
-1.0770263671875,0.3671875,0.8587646484375,-61.77520751953125,-160.5682373046875,-89.31732177734375
-1.0989990234375,0.3822021484375,0.822509765625,-64.361572265625,-176.727294921875,-85.0067138671875
-1.10546875,0.3941650390625,0.7911376953125,-67.291259765625,-189.7735595703125,-80.0933837890625
-1.11376953125,0.40576171875,0.7698974609375,-71.37298583984375,-200.58441162109375,-74.39422607421875
-1.1217041015625,0.4197998046875,0.746826171875,-76.39312744140625,-209.2742919921875,-69.3206787109375
-1.131591796875,0.435546875,0.7314453125,-81.36749267578125,-214.7216796875,-65.2618408203125
-1.143310546875,0.4495849609375,0.7103271484375,-86.12823486328125,-216.52984619140625,-62.255859375
-1.156494140625,0.4691162109375,0.7073974609375,-90.0726318359375,-214.39361572265625,-60.821533203125
-1.17724609375,0.4920654296875,0.725341796875,-92.00286865234375,-211.35711669921875,-60.4705810546875
-1.2037353515625,0.5164794921875,0.747314453125,-91.40777587890625,-210.174560546875,-61.45477294921875
-1.2275390625,0.5328369140625,0.7537841796875,-89.1876220703125,-211.090087890625,-62.6068115234375
-1.2440185546875,0.54150390625,0.7662353515625,-86.9140625,-211.5020751953125,-63.4002685546875
-1.2515869140625,0.5430908203125,0.7957763671875,-86.1358642578125,-211.456298828125,-64.3157958984375
-1.25537109375,0.536376953125,0.8275146484375,-86.212158203125,-212.54730224609375,-67.02423095703125
-1.2550048828125,0.5269775390625,0.8541259765625,-86.36474609375,-215.057373046875,-71.533203125
-1.2498779296875,0.5135498046875,0.8741455078125,-87.56256103515625,-217.65899658203125,-75.25634765625
-1.245849609375,0.499267578125,0.8863525390625,-90.21759033203125,-219.50531005859375,-76.202392578125
-1.234619140625,0.4774169921875,0.8939208984375,-95.64208984375,-219.58160400390625,-71.990966796875
-1.2215576171875,0.458251953125,0.9039306640625,-103.29437255859375,-218.26934814453125,-66.22314453125
-1.205810546875,0.441162109375,0.8970947265625,-112.44964599609375,-216.73583984375,-60.50872802734375
-1.182373046875,0.4273681640625,0.883056640625,-122.87139892578125,-213.9434814453125,-55.39703369140625
-1.1572265625,0.4219970703125,0.8597412109375,-132.57598876953125,-209.7625732421875,-52.30712890625
-1.1282958984375,0.423583984375,0.824462890625,-141.2200927734375,-203.7811279296875,-51.08642578125
-1.095703125,0.4283447265625,0.780029296875,-148.15521240234375,-195.56427001953125,-50.0946044921875
-1.0533447265625,0.43603515625,0.733642578125,-153.411865234375,-185.70709228515625,-48.39324951171875
-1.004638671875,0.4468994140625,0.6951904296875,-157.0892333984375,-174.98016357421875,-46.10443115234375
-0.9580078125,0.454833984375,0.664794921875,-158.59222412109375,-164.764404296875,-43.670654296875
-0.9144287109375,0.45849609375,0.6317138671875,-157.0281982421875,-157.0281982421875,-41.412353515625
-0.8680419921875,0.4569091796875,0.5892333984375,-152.30560302734375,-152.008056640625,-39.6881103515625
-0.8216552734375,0.4677734375,0.5587158203125,-145.1873779296875,-147.94921875,-38.09356689453125
-0.780029296875,0.469482421875,0.5233154296875,-136.4288330078125,-145.3704833984375,-36.23199462890625
-0.7354736328125,0.4619140625,0.4735107421875,-127.0294189453125,-144.0582275390625,-33.89739990234375
-0.6898193359375,0.45068359375,0.420166015625,-117.431640625,-142.28057861328125,-30.8990478515625
-0.64306640625,0.43359375,0.3607177734375,-108.551025390625,-139.312744140625,-27.35137939453125
-0.594482421875,0.4180908203125,0.31005859375,-100.74615478515625,-134.20867919921875,-23.62823486328125
-0.55078125,0.4033203125,0.26513671875,-93.72711181640625,-127.43377685546875,-19.4854736328125
-0.5103759765625,0.3895263671875,0.2286376953125,-87.42523193359375,-119.08721923828125,-14.6942138671875
-0.4725341796875,0.3785400390625,0.1949462890625,-81.329345703125,-109.68017578125,-9.0484619140625
-0.43896484375,0.3699951171875,0.1673583984375,-75.01983642578125,-100.09765625,-2.81524658203125
-0.4150390625,0.3575439453125,0.1488037109375,-67.52777099609375,-91.1407470703125,3.72314453125
-0.39208984375,0.3524169921875,0.10888671875,-58.7921142578125,-82.54241943359375,10.27679443359375
-0.3662109375,0.345458984375,0.067138671875,-49.64447021484375,-72.18170166015625,16.53289794921875
-0.34375,0.3421630859375,0.042236328125,-39.581298828125,-59.97467041015625,22.16339111328125
-0.3284912109375,0.3427734375,0.0250244140625,-28.2440185546875,-47.14202880859375,26.90887451171875
-0.3165283203125,0.345947265625,0.0101318359375,-15.380859375,-34.11102294921875,30.8380126953125
-0.309814453125,0.3533935546875,0.0078125,-1.3580322265625,-20.68328857421875,34.3170166015625
-0.312255859375,0.35986328125,0.015869140625,13.7786865234375,-7.537841796875,37.78076171875
-0.3206787109375,0.3629150390625,0.033203125,30.02166748046875,5.74493408203125,41.54205322265625
-0.3411865234375,0.362548828125,0.0682373046875,46.661376953125,19.92034912109375,46.24176025390625
-0.3758544921875,0.3634033203125,0.1273193359375,63.1866455078125,33.86688232421875,52.0172119140625
-0.421142578125,0.364501953125,0.2056884765625,77.8961181640625,46.79107666015625,58.9141845703125
-0.476806640625,0.3604736328125,0.2811279296875,89.90478515625,58.319091796875,66.79534912109375
-0.5352783203125,0.3582763671875,0.3531494140625,99.93743896484375,69.09942626953125,74.79095458984375
-0.5977783203125,0.35595703125,0.42431640625,108.8104248046875,80.8563232421875,82.4432373046875
-0.66259765625,0.3536376953125,0.495361328125,117.33245849609375,94.96307373046875,89.813232421875
-0.737060546875,0.3443603515625,0.5721435546875,126.53350830078125,112.57171630859375,97.0001220703125
-0.8192138671875,0.3355712890625,0.6722412109375,138.67950439453125,134.25445556640625,103.24859619140625
-0.9088134765625,0.3331298828125,0.773681640625,152.89306640625,158.0657958984375,108.001708984375
-1.0037841796875,0.335205078125,0.8746337890625,165.2679443359375,183.77685546875,112.29705810546875
-1.10205078125,0.3232421875,0.9884033203125,174.0264892578125,209.80072021484375,116.4703369140625
-1.2042236328125,0.3255615234375,1.093505859375,180.4962158203125,234.039306640625,118.3013916015625
-1.30078125,0.3348388671875,1.1773681640625,181.86187744140625,249.99237060546875,117.98858642578125
-1.4210205078125,0.32177734375,1.2061767578125,178.18450927734375,249.99237060546875,117.7978515625
-1.555419921875,0.2977294921875,1.20947265625,169.65484619140625,249.99237060546875,119.46868896484375
-1.6148681640625,0.2337646484375,1.2269287109375,154.2510986328125,249.99237060546875,124.00054931640625
-1.5496826171875,0.1402587890625,1.2489013671875,134.52911376953125,249.99237060546875,126.80816650390625
-1.4732666015625,0.0775146484375,1.199462890625,114.69268798828125,249.99237060546875,125.3662109375
-1.438720703125,0.0428466796875,1.111083984375,93.84918212890625,227.14996337890625,123.0316162109375
-1.4537353515625,0.0394287109375,1.041259765625,75.775146484375,201.31683349609375,119.45343017578125
-1.4189453125,0.023681640625,0.994873046875,62.896728515625,182.8460693359375,115.936279296875
-1.328125,-0.001708984375,0.927001953125,53.0242919921875,170.654296875,115.1580810546875
-1.27099609375,-0.016845703125,0.8531494140625,45.14312744140625,164.60418701171875,115.07415771484375
-1.2406005859375,-0.01904296875,0.7784423828125,39.45159912109375,166.8853759765625,113.8153076171875
-1.2091064453125,-0.021728515625,0.7427978515625,33.83636474609375,181.7474365234375,111.56463623046875
-1.14794921875,-0.017822265625,0.7650146484375,26.67236328125,197.36480712890625,106.4300537109375
-1.0872802734375,0.005615234375,0.770751953125,17.75360107421875,196.09832763671875,99.6551513671875
-1.037353515625,0.0263671875,0.725341796875,10.8184814453125,177.2003173828125,92.8192138671875
-0.9942626953125,0.052490234375,0.6796875,7.50732421875,149.1851806640625,86.42578125
-0.9609375,0.07080078125,0.6424560546875,7.5836181640625,119.07958984375,80.87158203125
-0.9239501953125,0.0625,0.59716796875,9.1094970703125,90.53802490234375,76.7669677734375
-0.869140625,0.052001953125,0.541259765625,9.3994140625,67.22259521484375,74.59259033203125
-0.8167724609375,0.0419921875,0.4759521484375,7.57598876953125,52.28424072265625,73.944091796875
-0.782958984375,0.0318603515625,0.4188232421875,2.61688232421875,47.27935791015625,75.0885009765625
-0.7652587890625,0.034423828125,0.3922119140625,-5.2490234375,52.55889892578125,76.1260986328125
-0.7572021484375,0.0413818359375,0.3720703125,-15.228271484375,62.5,77.12554931640625
-0.7525634765625,0.0523681640625,0.3641357421875,-26.75628662109375,73.54736328125,77.96478271484375
-0.7425537109375,0.06982421875,0.38037109375,-38.85650634765625,80.657958984375,79.27703857421875
-0.7467041015625,0.1007080078125,0.3863525390625,-49.8199462890625,79.6966552734375,80.6732177734375
-0.765380859375,0.12158203125,0.357177734375,-57.586669921875,74.21112060546875,82.8094482421875
-0.7786865234375,0.1317138671875,0.322998046875,-61.82861328125,71.319580078125,85.50262451171875
-0.795166015625,0.139892578125,0.2957763671875,-63.232421875,72.85308837890625,88.348388671875
-0.8062744140625,0.1429443359375,0.2718505859375,-61.71417236328125,77.606201171875,91.705322265625
-0.82275390625,0.140625,0.25,-57.7545166015625,85.5865478515625,95.4437255859375
-0.8515625,0.1365966796875,0.2418212890625,-52.1240234375,97.5189208984375,98.18267822265625
-0.88037109375,0.1309814453125,0.262451171875,-45.72296142578125,111.44256591796875,99.0447998046875
-0.8944091796875,0.1162109375,0.28564453125,-38.7420654296875,123.29864501953125,97.40447998046875
-0.900146484375,0.1058349609375,0.31689453125,-31.50177001953125,130.767822265625,92.91839599609375
-0.9144287109375,0.1085205078125,0.3564453125,-24.33013916015625,130.8441162109375,86.23504638671875
-0.9263916015625,0.1124267578125,0.3955078125,-15.106201171875,122.79510498046875,78.2623291015625
-0.928466796875,0.11328125,0.412353515625,-3.37982177734375,108.7799072265625,69.9462890625
-0.9169921875,0.1099853515625,0.4266357421875,10.6353759765625,94.8944091796875,62.56103515625
-0.900634765625,0.1046142578125,0.4407958984375,24.9786376953125,83.76312255859375,56.70928955078125
-0.9019775390625,0.1004638671875,0.4671630859375,39.459228515625,76.60675048828125,51.47552490234375
-0.902099609375,0.0950927734375,0.5009765625,53.924560546875,71.258544921875,45.64666748046875
-0.8975830078125,0.087158203125,0.53759765625,68.33648681640625,66.314697265625,38.70391845703125
-0.8936767578125,0.0784912109375,0.5889892578125,80.98602294921875,59.95941162109375,30.853271484375
-0.8966064453125,0.0703125,0.644775390625,91.46881103515625,48.7213134765625,22.52960205078125
-0.91259765625,0.0631103515625,0.6798095703125,101.1505126953125,31.66961669921875,13.5345458984375
-0.927490234375,0.0567626953125,0.70849609375,108.7799072265625,12.70294189453125,4.119873046875
-0.94775390625,0.05126953125,0.7232666015625,113.46435546875,-5.401611328125,-4.9591064453125
-0.9708251953125,0.053466796875,0.7332763671875,114.105224609375,-19.317626953125,-13.6871337890625
-0.9962158203125,0.060546875,0.73681640625,110.55755615234375,-27.8472900390625,-21.06475830078125
-1.0277099609375,0.07275390625,0.74365234375,103.56903076171875,-31.01348876953125,-27.12249755859375
-1.0543212890625,0.092529296875,0.755126953125,94.39849853515625,-31.6162109375,-32.24945068359375
-1.0693359375,0.110595703125,0.77587890625,83.9996337890625,-32.440185546875,-36.00311279296875
-1.07958984375,0.1195068359375,0.77978515625,73.43292236328125,-36.62872314453125,-38.24615478515625
-1.08349609375,0.124267578125,0.776123046875,63.4613037109375,-44.41070556640625,-39.64996337890625
-1.0850830078125,0.1231689453125,0.7662353515625,53.30657958984375,-55.96923828125,-40.91644287109375
-1.0911865234375,0.1251220703125,0.7564697265625,42.21343994140625,-69.98443603515625,-42.29736328125
-1.1068115234375,0.13330078125,0.74755859375,30.84564208984375,-85.68572998046875,-43.6553955078125
-1.1204833984375,0.1424560546875,0.7314453125,19.90509033203125,-102.294921875,-45.03631591796875
-1.1358642578125,0.156982421875,0.7080078125,9.05609130859375,-118.46160888671875,-46.5545654296875
-1.1512451171875,0.175537109375,0.6712646484375,-0.87738037109375,-132.48443603515625,-48.5076904296875
-1.16064453125,0.1944580078125,0.626708984375,-9.91058349609375,-142.55523681640625,-51.26953125
-1.164306640625,0.2154541015625,0.5826416015625,-17.20428466796875,-147.9644775390625,-54.19921875
-1.1644287109375,0.2403564453125,0.545654296875,-22.0184326171875,-150.10833740234375,-57.0526123046875
-1.160400390625,0.26708984375,0.5233154296875,-23.46038818359375,-151.25274658203125,-59.41009521484375
-1.162109375,0.29150390625,0.50341796875,-21.15631103515625,-153.4423828125,-61.46240234375
-1.1708984375,0.31103515625,0.49267578125,-16.05224609375,-156.66961669921875,-63.17901611328125
-1.189208984375,0.3258056640625,0.48486328125,-8.35418701171875,-160.5377197265625,-65.48309326171875
-1.2113037109375,0.338134765625,0.4842529296875,1.56402587890625,-164.1693115234375,-68.74847412109375
-1.2354736328125,0.347900390625,0.4967041015625,12.0086669921875,-166.68701171875,-73.2574462890625
-1.2567138671875,0.352783203125,0.5174560546875,22.4761962890625,-168.29681396484375,-78.68194580078125
-1.2760009765625,0.352294921875,0.545166015625,31.89849853515625,-169.74639892578125,-84.22088623046875
-1.2913818359375,0.348388671875,0.578369140625,39.87884521484375,-171.80633544921875,-89.2486572265625
-1.30810546875,0.3411865234375,0.6038818359375,45.98236083984375,-174.6673583984375,-93.2464599609375
-1.3203125,0.328125,0.6220703125,49.6978759765625,-177.3529052734375,-95.05462646484375
-1.3289794921875,0.31103515625,0.6427001953125,51.04827880859375,-180.145263671875,-94.29168701171875
-1.3349609375,0.2926025390625,0.6571044921875,50.9796142578125,-183.990478515625,-92.4072265625
-1.3306884765625,0.268798828125,0.6591796875,49.26300048828125,-188.37738037109375,-89.6759033203125
-1.319091796875,0.245361328125,0.662109375,45.23468017578125,-193.023681640625,-86.456298828125
-1.306396484375,0.2265625,0.6629638671875,39.00909423828125,-198.2269287109375,-83.30535888671875
-1.292236328125,0.2120361328125,0.6636962890625,31.25,-204.03289794921875,-80.36041259765625
-1.2757568359375,0.202880859375,0.6678466796875,22.186279296875,-209.6710205078125,-78.2928466796875
-1.26025390625,0.19677734375,0.67529296875,11.77978515625,-214.56146240234375,-77.07977294921875
-1.242919921875,0.193115234375,0.68115234375,0.030517578125,-218.32275390625,-76.83563232421875
-1.2215576171875,0.19384765625,0.68798828125,-13.458251953125,-219.7113037109375,-77.35443115234375
-1.1962890625,0.203369140625,0.7017822265625,-28.69415283203125,-219.268798828125,-78.0792236328125
-1.1727294921875,0.219970703125,0.7113037109375,-45.1202392578125,-218.52874755859375,-79.20074462890625
-1.1497802734375,0.24365234375,0.7237548828125,-61.53106689453125,-216.65191650390625,-80.26885986328125
-1.129638671875,0.275634765625,0.7337646484375,-76.751708984375,-213.2568359375,-80.4443359375
-1.1082763671875,0.3060302734375,0.732666015625,-90.33203125,-207.86285400390625,-79.33807373046875
-1.0831298828125,0.336181640625,0.7208251953125,-101.86004638671875,-200.6683349609375,-77.14080810546875
-1.0560302734375,0.3621826171875,0.7047119140625,-111.06109619140625,-192.07000732421875,-74.10430908203125
-1.031005859375,0.383056640625,0.689208984375,-118.03436279296875,-183.21990966796875,-70.80841064453125
-1.0098876953125,0.40283203125,0.677490234375,-122.9400634765625,-175.72021484375,-67.84820556640625
-0.9898681640625,0.4178466796875,0.6575927734375,-125.84686279296875,-170.8831787109375,-64.88037109375
-0.961181640625,0.4263916015625,0.62890625,-127.1514892578125,-166.78619384765625,-61.11907958984375
-0.9283447265625,0.4296875,0.5986328125,-127.63214111328125,-161.96441650390625,-56.69403076171875
-0.8935546875,0.4329833984375,0.5640869140625,-127.044677734375,-156.280517578125,-52.3834228515625
-0.85400390625,0.4376220703125,0.532958984375,-125.78582763671875,-149.261474609375,-48.9349365234375
-0.81298828125,0.4407958984375,0.5050048828125,-124.09210205078125,-141.39556884765625,-46.539306640625
-0.7724609375,0.441162109375,0.470947265625,-121.71173095703125,-133.88824462890625,-44.80743408203125
-0.7298583984375,0.436279296875,0.430419921875,-118.499755859375,-126.983642578125,-43.28155517578125
-0.68505859375,0.4290771484375,0.3927001953125,-114.44854736328125,-119.86541748046875,-41.6412353515625
-0.6431884765625,0.419677734375,0.3609619140625,-109.6038818359375,-112.6556396484375,-39.825439453125
-0.60498046875,0.40673828125,0.3310546875,-103.49273681640625,-105.743408203125,-38.10882568359375
-0.5673828125,0.395263671875,0.3023681640625,-96.29058837890625,-98.4649658203125,-36.65924072265625
-0.5325927734375,0.388671875,0.279541015625,-88.03558349609375,-90.75927734375,-35.8123779296875
-0.50244140625,0.380859375,0.2548828125,-79.33807373046875,-82.763671875,-35.66741943359375
-0.475341796875,0.37646484375,0.2347412109375,-70.16754150390625,-74.83673095703125,-35.78948974609375
-0.453857421875,0.37646484375,0.2177734375,-60.455322265625,-66.8487548828125,-35.63690185546875
-0.4398193359375,0.3841552734375,0.2066650390625,-50.35400390625,-58.7921142578125,-34.60693359375
-0.4324951171875,0.39697265625,0.1944580078125,-39.75677490234375,-50.567626953125,-32.3638916015625
-0.4288330078125,0.411865234375,0.1854248046875,-28.7322998046875,-40.95458984375,-28.717041015625
-0.4332275390625,0.425048828125,0.1785888671875,-17.181396484375,-30.1971435546875,-23.44512939453125
-0.44189453125,0.431640625,0.1737060546875,-5.14984130859375,-19.4244384765625,-16.62445068359375
-0.4508056640625,0.427978515625,0.168212890625,6.96563720703125,-9.01031494140625,-8.9569091796875
-0.4595947265625,0.41748046875,0.169189453125,18.74542236328125,1.8768310546875,-1.16729736328125
-0.4722900390625,0.40283203125,0.1689453125,29.9530029296875,12.96234130859375,6.17218017578125
-0.4866943359375,0.39453125,0.1771240234375,41.259765625,25.38299560546875,12.5732421875
-0.5147705078125,0.4027099609375,0.2049560546875,53.27606201171875,40.33660888671875,17.84515380859375
-0.54638671875,0.42578125,0.2454833984375,65.460205078125,57.891845703125,21.91925048828125
-0.578125,0.4488525390625,0.29638671875,76.263427734375,77.09503173828125,25.99334716796875
-0.6123046875,0.4691162109375,0.349365234375,87.12005615234375,95.03173828125,30.0445556640625
-0.650146484375,0.484375,0.3970947265625,98.99139404296875,111.5570068359375,33.7982177734375
-0.687255859375,0.5045166015625,0.435546875,111.0382080078125,130.0201416015625,37.48321533203125
-0.73876953125,0.5299072265625,0.4876708984375,121.28448486328125,153.167724609375,41.57257080078125
-0.809814453125,0.5489501953125,0.547119140625,129.547119140625,178.3905029296875,45.7611083984375
-0.9017333984375,0.56591796875,0.5977783203125,136.46697998046875,204.864501953125,49.49951171875
-1.008544921875,0.5706787109375,0.6407470703125,141.45660400390625,235.80169677734375,54.13055419921875
-1.125732421875,0.552978515625,0.6859130859375,145.263671875,249.99237060546875,59.54742431640625
-1.2335205078125,0.5196533203125,0.7763671875,145.751953125,249.99237060546875,62.835693359375
-1.23486328125,0.464599609375,0.88818359375,141.50238037109375,249.99237060546875,65.08636474609375
-1.2625732421875,0.413330078125,0.9649658203125,127.69317626953125,249.99237060546875,59.1888427734375
-1.3349609375,0.4200439453125,1.0054931640625,114.55535888671875,249.99237060546875,39.85595703125
-1.28662109375,0.42333984375,1.0096435546875,110.14556884765625,249.99237060546875,22.33123779296875
-1.1834716796875,0.370361328125,0.9752197265625,109.77935791015625,226.165771484375,23.25439453125
-1.1346435546875,0.323486328125,0.9288330078125,104.827880859375,210.87646484375,34.52301025390625
-1.1248779296875,0.3009033203125,0.90673828125,96.4508056640625,201.0040283203125,46.56982421875
-1.10986328125,0.2716064453125,0.9053955078125,86.24267578125,195.80841064453125,57.89947509765625
-1.0799560546875,0.2325439453125,0.9146728515625,71.81549072265625,192.1844482421875,64.30816650390625
-1.0494384765625,0.2275390625,0.934326171875,52.08587646484375,184.83734130859375,61.6302490234375
-1.0062255859375,0.23876953125,0.931396484375,32.29522705078125,167.4346923828125,57.12890625
-0.986083984375,0.24365234375,0.8973388671875,15.56396484375,142.6849365234375,57.36541748046875
-0.9766845703125,0.252197265625,0.8304443359375,2.52532958984375,116.27960205078125,62.04986572265625
-0.94384765625,0.2513427734375,0.7578125,-9.0789794921875,97.8546142578125,69.6563720703125
-0.919677734375,0.2640380859375,0.6971435546875,-20.69091796875,89.37835693359375,76.84326171875
-0.9019775390625,0.260009765625,0.6380615234375,-31.2042236328125,86.7156982421875,85.4034423828125
-0.8770751953125,0.26318359375,0.5618896484375,-40.8172607421875,88.43231201171875,92.7886962890625
-0.8741455078125,0.2869873046875,0.510009765625,-49.07989501953125,98.114013671875,97.63336181640625
-0.86962890625,0.3179931640625,0.4736328125,-53.985595703125,107.82623291015625,100.07476806640625
-0.8720703125,0.344970703125,0.42578125,-51.20086669921875,112.97607421875,101.2420654296875
-0.8731689453125,0.3636474609375,0.3974609375,-40.09246826171875,116.5771484375,99.7772216796875
-0.872314453125,0.37939453125,0.390380859375,-23.81134033203125,117.5994873046875,96.0540771484375
-0.873046875,0.3863525390625,0.3804931640625,-5.4931640625,115.1123046875,91.461181640625
-0.8646240234375,0.373779296875,0.367431640625,13.519287109375,111.602783203125,86.21978759765625
-0.85986328125,0.357666015625,0.3663330078125,29.23583984375,110.5804443359375,79.62799072265625
-0.8656005859375,0.344482421875,0.37109375,40.87066650390625,111.61041259765625,72.6318359375
-0.862060546875,0.3253173828125,0.400390625,50.28533935546875,115.0665283203125,68.18389892578125
-0.815185546875,0.31689453125,0.4617919921875,54.9163818359375,117.85888671875,66.162109375
-0.830810546875,0.320556640625,0.4732666015625,58.197021484375,110.05401611328125,68.12286376953125
-0.8370361328125,0.3114013671875,0.5164794921875,64.21661376953125,99.83062744140625,71.99859619140625
-0.8345947265625,0.3074951171875,0.53857421875,69.2291259765625,89.6759033203125,74.04327392578125
-0.8359375,0.3001708984375,0.5634765625,73.26507568359375,83.984375,75.17242431640625
-0.84765625,0.294677734375,0.595947265625,77.0721435546875,81.634521484375,76.6143798828125
-0.8599853515625,0.291015625,0.63037109375,80.90972900390625,80.16204833984375,77.59857177734375
-0.8746337890625,0.2823486328125,0.66015625,85.30426025390625,79.70428466796875,77.52227783203125
-0.8839111328125,0.2742919921875,0.6966552734375,90.5609130859375,80.0018310546875,76.0498046875
-0.89599609375,0.2666015625,0.7349853515625,96.09222412109375,79.90264892578125,72.8759765625
-0.903564453125,0.2589111328125,0.792724609375,101.3336181640625,78.45306396484375,68.2373046875
-0.9056396484375,0.2451171875,0.8455810546875,106.23931884765625,73.69232177734375,61.91253662109375
-0.8900146484375,0.2188720703125,0.8902587890625,109.21478271484375,67.5811767578125,52.79541015625
-0.8648681640625,0.191162109375,0.9283447265625,108.34503173828125,62.1795654296875,42.09136962890625
-0.843505859375,0.1634521484375,0.9637451171875,103.1646728515625,58.03680419921875,32.08160400390625
-0.82763671875,0.13427734375,0.9908447265625,93.56689453125,54.42047119140625,23.87237548828125
-0.82080078125,0.10595703125,1.005126953125,80.28411865234375,50.84991455078125,18.27239990234375
-0.81982421875,0.087646484375,1.017578125,63.68255615234375,47.2869873046875,15.34271240234375
-0.825439453125,0.0859375,1.0264892578125,44.8760986328125,42.205810546875,14.617919921875
-0.837646484375,0.0943603515625,1.0225830078125,26.58843994140625,34.67559814453125,14.862060546875
-0.852294921875,0.11572265625,1.011474609375,9.52911376953125,24.74212646484375,14.801025390625
-0.86572265625,0.1448974609375,1.00634765625,-5.1422119140625,12.44354248046875,13.13018798828125
-0.882568359375,0.16796875,0.9910888671875,-16.25823974609375,-4.119873046875,10.26153564453125
-0.898681640625,0.1878662109375,0.9569091796875,-23.67401123046875,-23.6053466796875,5.1422119140625
-0.9267578125,0.2076416015625,0.919189453125,-28.564453125,-42.327880859375,-0.9765625
-0.954833984375,0.225341796875,0.8941650390625,-33.40911865234375,-59.051513671875,-6.7596435546875
-0.98095703125,0.2379150390625,0.8714599609375,-37.8265380859375,-74.50103759765625,-12.39013671875
-1.005126953125,0.2557373046875,0.8592529296875,-41.89300537109375,-89.71405029296875,-18.1732177734375
-1.03564453125,0.281005859375,0.8433837890625,-45.3338623046875,-105.29327392578125,-23.61297607421875
-1.0638427734375,0.3046875,0.83154296875,-48.2940673828125,-119.37713623046875,-28.17535400390625
-1.093505859375,0.326416015625,0.828125,-49.1790771484375,-132.13348388671875,-32.49359130859375
-1.11865234375,0.3450927734375,0.8172607421875,-46.82159423828125,-145.28656005859375,-37.078857421875
-1.1346435546875,0.359375,0.7982177734375,-43.55621337890625,-157.50885009765625,-40.88592529296875
-1.1373291015625,0.3634033203125,0.7808837890625,-40.38238525390625,-167.6177978515625,-43.975830078125
-1.1297607421875,0.3619384765625,0.767578125,-37.0330810546875,-175.9033203125,-47.49298095703125
-1.1217041015625,0.3695068359375,0.7564697265625,-33.63800048828125,-182.06787109375,-51.50604248046875
-1.12255859375,0.37548828125,0.75048828125,-31.1279296875,-185.44769287109375,-55.60302734375
-1.1307373046875,0.386962890625,0.7510986328125,-29.71649169921875,-186.75994873046875,-60.882568359375
-1.1451416015625,0.410400390625,0.7802734375,-29.68597412109375,-186.187744140625,-66.26129150390625
-1.172607421875,0.432373046875,0.8109130859375,-30.82275390625,-186.6302490234375,-71.8994140625
-1.203857421875,0.4466552734375,0.8299560546875,-31.9061279296875,-187.47711181640625,-78.92608642578125
-1.2236328125,0.4505615234375,0.85888671875,-31.88323974609375,-188.89617919921875,-84.05303955078125
-1.2406005859375,0.4461669921875,0.9022216796875,-31.2957763671875,-192.35992431640625,-85.7696533203125
-1.2587890625,0.442626953125,0.9400634765625,-29.89959716796875,-199.1119384765625,-87.9974365234375
-1.2694091796875,0.431396484375,0.9693603515625,-28.96881103515625,-206.695556640625,-90.40069580078125
-1.2684326171875,0.4119873046875,0.9901123046875,-29.7393798828125,-212.58544921875,-91.827392578125
-1.259521484375,0.390625,1.0042724609375,-32.46307373046875,-215.88897705078125,-92.1478271484375
-1.248291015625,0.3704833984375,1.011474609375,-37.445068359375,-217.1173095703125,-91.68243408203125
-1.234130859375,0.351806640625,1.01220703125,-44.7540283203125,-216.766357421875,-90.2099609375
-1.2176513671875,0.33984375,1.0107421875,-54.52728271484375,-215.3472900390625,-87.5396728515625
-1.197265625,0.333251953125,1.000732421875,-66.42913818359375,-213.3331298828125,-83.61053466796875
-1.17333984375,0.332275390625,0.9892578125,-79.2999267578125,-211.43341064453125,-79.00238037109375
-1.15234375,0.3427734375,0.981689453125,-92.33856201171875,-211.17401123046875,-74.47052001953125
-1.1376953125,0.360595703125,0.978515625,-104.736328125,-211.8988037109375,-71.3653564453125
-1.1243896484375,0.3770751953125,0.96435546875,-115.631103515625,-212.890625,-69.976806640625
-1.1043701171875,0.390869140625,0.9263916015625,-125.06103515625,-212.37945556640625,-69.67926025390625
-1.080810546875,0.4005126953125,0.880126953125,-133.2550048828125,-209.259033203125,-69.88525390625
-1.0562744140625,0.40869140625,0.84033203125,-140.64788818359375,-204.1168212890625,-70.19805908203125
-1.0294189453125,0.417724609375,0.8056640625,-146.728515625,-197.07489013671875,-70.96099853515625
-0.9998779296875,0.435546875,0.7723388671875,-151.34429931640625,-187.85858154296875,-71.76971435546875
-0.9718017578125,0.45068359375,0.741943359375,-154.1748046875,-176.4373779296875,-71.197509765625
-0.944580078125,0.4635009765625,0.7110595703125,-155.81512451171875,-165.41290283203125,-69.1375732421875
-0.91552734375,0.4735107421875,0.67724609375,-156.54754638671875,-155.50994873046875,-65.36102294921875
-0.8875732421875,0.484619140625,0.645263671875,-156.3262939453125,-147.30072021484375,-60.78338623046875
-0.861083984375,0.48486328125,0.5997314453125,-155.0750732421875,-142.1661376953125,-56.00738525390625
-0.8272705078125,0.476318359375,0.552734375,-152.82440185546875,-138.5955810546875,-52.032470703125
-0.7872314453125,0.4693603515625,0.511474609375,-149.35302734375,-135.96343994140625,-49.9114990234375
-0.751953125,0.459716796875,0.469482421875,-144.4854736328125,-134.429931640625,-49.1180419921875
-0.7125244140625,0.44921875,0.425537109375,-138.28277587890625,-133.148193359375,-48.91204833984375
-0.6705322265625,0.434814453125,0.383056640625,-131.14166259765625,-130.57708740234375,-48.2177734375
-0.63037109375,0.4197998046875,0.343017578125,-123.382568359375,-126.21307373046875,-46.60797119140625
-0.5928955078125,0.4033203125,0.30859375,-115.509033203125,-120.55206298828125,-44.0521240234375
-0.5576171875,0.385986328125,0.277587890625,-107.4981689453125,-114.66217041015625,-40.80963134765625
-0.52392578125,0.3702392578125,0.2421875,-98.89984130859375,-108.84857177734375,-37.4755859375
-0.489990234375,0.35693359375,0.2025146484375,-90.67535400390625,-102.04315185546875,-34.1644287109375
-0.4593505859375,0.345703125,0.166748046875,-83.06884765625,-93.42193603515625,-30.9906005859375
-0.4315185546875,0.3436279296875,0.1422119140625,-75.5157470703125,-83.74786376953125,-28.4423828125
-0.4078369140625,0.349853515625,0.12744140625,-67.596435546875,-73.82965087890625,-25.970458984375
-0.388671875,0.358642578125,0.1170654296875,-59.2041015625,-64.1632080078125,-23.101806640625
