accel_x,accel_y,accel_z,gyro_x,gyro_y,gyro_z
-1.0625,-0.0340576171875,-0.24267578125,10.61248779296875,26.25274658203125,-7.57598876953125
-1.063720703125,-0.033935546875,-0.2412109375,10.45989990234375,27.64129638671875,-7.54547119140625
-1.0693359375,-0.0350341796875,-0.2412109375,10.65826416015625,29.937744140625,-7.32421875
-1.07470703125,-0.037841796875,-0.239013671875,11.4898681640625,32.64617919921875,-7.05718994140625
-1.0767822265625,-0.0416259765625,-0.2340087890625,12.6190185546875,34.69085693359375,-6.29425048828125
-1.0791015625,-0.043701171875,-0.2318115234375,13.36669921875,36.78131103515625,-5.07354736328125
-1.0982666015625,-0.0426025390625,-0.2357177734375,14.0380859375,40.22216796875,-3.5400390625
-1.14892578125,-0.0382080078125,-0.244140625,16.04461669921875,43.5638427734375,-1.495361328125
-1.1917724609375,-0.032958984375,-0.24169921875,19.50836181640625,45.81451416015625,-0.0152587890625
-1.20751953125,-0.029296875,-0.2244873046875,22.33123779296875,47.05047607421875,0.5950927734375
-1.2027587890625,-0.0252685546875,-0.203369140625,22.4609375,47.332763671875,-0.61798095703125
-1.1959228515625,-0.0240478515625,-0.190673828125,19.989013671875,46.966552734375,-3.88336181640625
-1.18408203125,-0.037109375,-0.095458984375,17.26531982421875,44.7540283203125,-8.4075927734375
-1.190673828125,-0.05224609375,0.0164794921875,15.34271240234375,35.0341796875,-12.176513671875
-1.184814453125,-0.065185546875,0.054443359375,13.9312744140625,16.2506103515625,-15.380859375
-1.1650390625,-0.0634765625,-0.0125732421875,16.0980224609375,-3.54766845703125,-17.00592041015625
-1.1314697265625,-0.0533447265625,-0.1044921875,23.79608154296875,-21.67510986328125,-16.36505126953125
-1.1083984375,-0.0450439453125,-0.1494140625,36.35406494140625,-37.98675537109375,-13.32855224609375
-1.093994140625,-0.04052734375,-0.1473388671875,46.783447265625,-47.99652099609375,-10.4217529296875
-1.0863037109375,-0.0340576171875,-0.0953369140625,47.79815673828125,-57.12127685546875,-9.21630859375
-1.05810546875,-0.03369140625,-0.1417236328125,37.75787353515625,-69.00787353515625,-8.9111328125
-1.0240478515625,-0.0335693359375,-0.1846923828125,29.25872802734375,-80.0323486328125,-7.354736328125
-0.9886474609375,-0.033203125,-0.2139892578125,24.0325927734375,-85.845947265625,-4.913330078125
-0.9501953125,-0.032470703125,-0.232421875,20.93505859375,-86.7919921875,-2.14385986328125
-0.9166259765625,-0.0333251953125,-0.243896484375,19.439697265625,-85.540771484375,1.6937255859375
-0.892333984375,-0.0338134765625,-0.2489013671875,18.83697509765625,-83.6639404296875,6.15692138671875
-0.876953125,-0.03369140625,-0.2408447265625,18.3258056640625,-81.5887451171875,10.47515869140625
-0.8662109375,-0.0340576171875,-0.233642578125,16.47186279296875,-79.75006103515625,14.21356201171875
-0.8590087890625,-0.03369140625,-0.22412109375,12.481689453125,-78.0181884765625,17.23480224609375
-0.853759765625,-0.0333251953125,-0.2208251953125,6.866455078125,-76.01165771484375,19.55413818359375
-0.8544921875,-0.0343017578125,-0.2265625,0.84686279296875,-73.67706298828125,21.58355712890625
-0.8536376953125,-0.0360107421875,-0.2420654296875,-3.79180908203125,-71.1822509765625,23.52142333984375
-0.855224609375,-0.035888671875,-0.2557373046875,-5.6304931640625,-68.6798095703125,25.787353515625
-0.8629150390625,-0.0345458984375,-0.2652587890625,-4.57000732421875,-66.47491455078125,28.95355224609375
-0.8695068359375,-0.0335693359375,-0.2645263671875,-1.556396484375,-64.96429443359375,32.93609619140625
-0.8773193359375,-0.0328369140625,-0.2576904296875,1.59454345703125,-63.812255859375,37.63580322265625
-0.886474609375,-0.0343017578125,-0.2486572265625,3.4332275390625,-62.8814697265625,42.42706298828125
-0.8878173828125,-0.0374755859375,-0.2386474609375,3.19671630859375,-62.30926513671875,46.68426513671875
-0.8873291015625,-0.0418701171875,-0.2303466796875,0.3814697265625,-61.920166015625,50.384521484375
-0.8853759765625,-0.050048828125,-0.2255859375,-4.69970703125,-61.14959716796875,53.44390869140625
-0.8994140625,-0.0584716796875,-0.2164306640625,-11.3677978515625,-59.59320068359375,55.17578125
-0.911376953125,-0.063720703125,-0.2064208984375,-20.1568603515625,-57.8765869140625,53.71856689453125
-0.9248046875,-0.0665283203125,-0.1983642578125,-30.58624267578125,-58.31146240234375,50.72021484375
-0.9302978515625,-0.0701904296875,-0.2025146484375,-41.95404052734375,-61.94305419921875,47.01995849609375
-0.926513671875,-0.0755615234375,-0.212158203125,-52.9022216796875,-65.48309326171875,42.8009033203125
-0.9251708984375,-0.08056640625,-0.228271484375,-62.04986572265625,-67.4896240234375,38.26141357421875
-0.9141845703125,-0.08447265625,-0.2418212890625,-68.634033203125,-64.64385986328125,32.1807861328125
-0.91552734375,-0.0831298828125,-0.2518310546875,-71.5789794921875,-62.26348876953125,25.23040771484375
-0.907958984375,-0.0799560546875,-0.2635498046875,-71.3958740234375,-62.11090087890625,18.76068115234375
-0.8931884765625,-0.0765380859375,-0.2747802734375,-69.244384765625,-61.248779296875,13.3819580078125
-0.8748779296875,-0.0716552734375,-0.28564453125,-65.91033935546875,-57.31201171875,9.60540771484375
-0.8570556640625,-0.0679931640625,-0.288818359375,-60.943603515625,-51.88751220703125,7.9498291015625
-0.8336181640625,-0.06494140625,-0.2891845703125,-55.36651611328125,-44.94476318359375,7.75909423828125
-0.82275390625,-0.0614013671875,-0.28759765625,-49.49951171875,-37.7044677734375,9.3994140625
-0.8289794921875,-0.0560302734375,-0.2620849609375,-43.5791015625,-32.196044921875,12.0849609375
-0.8389892578125,-0.052978515625,-0.24560546875,-36.1480712890625,-28.23638916015625,15.350341796875
-0.8419189453125,-0.05126953125,-0.2291259765625,-27.16064453125,-23.59771728515625,18.48602294921875
-0.8486328125,-0.050048828125,-0.2142333984375,-23.62823486328125,-18.341064453125,20.92742919921875
-0.8564453125,-0.0498046875,-0.200927734375,-26.214599609375,-12.6495361328125,22.5067138671875
-0.864013671875,-0.0496826171875,-0.1922607421875,-34.36279296875,-6.05010986328125,23.4375
-0.8651123046875,-0.051025390625,-0.1885986328125,-46.01287841796875,0.9918212890625,23.61297607421875
-0.8607177734375,-0.05322265625,-0.1925048828125,-58.6700439453125,7.28607177734375,23.23150634765625
-0.857177734375,-0.05517578125,-0.207763671875,-69.9615478515625,12.36724853515625,23.21624755859375
-0.8607177734375,-0.060302734375,-0.22998046875,-77.07977294921875,16.4337158203125,23.55194091796875
-0.8609619140625,-0.06591796875,-0.2529296875,-78.8726806640625,20.63751220703125,23.73504638671875
-0.8648681640625,-0.071044921875,-0.2706298828125,-75.5157470703125,24.87945556640625,23.9715576171875
-0.877685546875,-0.0738525390625,-0.2794189453125,-68.15338134765625,28.32794189453125,24.45220947265625
-0.8963623046875,-0.0748291015625,-0.28173828125,-58.8836669921875,31.19659423828125,25.4364013671875
-0.9259033203125,-0.073486328125,-0.276611328125,-49.8199462890625,33.66851806640625,26.641845703125
-0.9615478515625,-0.0701904296875,-0.2674560546875,-43.15948486328125,35.80474853515625,27.4505615234375
-0.98974609375,-0.0670166015625,-0.25341796875,-40.29083251953125,38.21563720703125,27.22930908203125
-1.0103759765625,-0.0626220703125,-0.2425537109375,-41.57257080078125,40.18402099609375,25.74920654296875
-1.02880859375,-0.0579833984375,-0.2393798828125,-46.37908935546875,41.7327880859375,24.3072509765625
-1.0357666015625,-0.0550537109375,-0.2364501953125,-53.18450927734375,43.84613037109375,23.09417724609375
-1.0379638671875,-0.052490234375,-0.2369384765625,-60.4400634765625,45.29571533203125,21.44622802734375
-1.0059814453125,-0.0234375,-0.0953369140625,-63.02642822265625,39.78729248046875,21.41571044921875
-1.213623046875,0.085205078125,-0.00341796875,35.9954833984375,-55.42755126953125,45.7000732421875
-1.2646484375,0.2310791015625,0.354736328125,238.85345458984375,-128.59344482421875,80.780029296875
-1.2840576171875,0.3902587890625,1.113525390625,249.99237060546875,-157.989501953125,95.7183837890625
-1.2288818359375,0.3985595703125,1.1241455078125,249.99237060546875,-164.8101806640625,97.54180908203125
-1.249755859375,0.3616943359375,0.9981689453125,141.45660400390625,-84.90753173828125,72.33428955078125
-1.1778564453125,0.3409423828125,0.838134765625,-29.022216796875,-11.4593505859375,29.3731689453125
-1.1539306640625,0.3482666015625,0.7877197265625,-189.056396484375,13.5040283203125,-5.0506591796875
-1.2938232421875,0.23974609375,0.8868408203125,-250.0,-33.10394287109375,-13.40484619140625
-1.2652587890625,0.128662109375,0.528076171875,-250.0,-99.7161865234375,-1.13677978515625
-1.153564453125,0.0782470703125,0.209716796875,-250.0,-83.404541015625,1.190185546875
-1.0128173828125,0.0343017578125,-0.0059814453125,-250.0,-51.01776123046875,-4.00543212890625
-0.9227294921875,-0.001708984375,-0.175537109375,-230.44586181640625,-35.5072021484375,-3.28826904296875
-0.8984375,-0.0245361328125,-0.2833251953125,-162.14752197265625,-19.21844482421875,3.9825439453125
-0.936767578125,-0.0274658203125,-0.320068359375,-88.31024169921875,1.40380859375,11.55853271484375
-0.987548828125,-0.0203857421875,-0.3046875,-20.31707763671875,24.169921875,16.05987548828125
-1.0509033203125,-0.0103759765625,-0.253173828125,32.5775146484375,47.6226806640625,19.8822021484375
-1.1156005859375,0.00244140625,-0.1810302734375,65.0787353515625,73.58551025390625,20.17974853515625
-1.1788330078125,0.0167236328125,-0.091064453125,75.4241943359375,99.91455078125,17.95196533203125
-1.2183837890625,0.0260009765625,0.006103515625,64.70489501953125,115.16571044921875,15.02227783203125
-1.2139892578125,0.0247802734375,0.085693359375,36.15570068359375,110.2294921875,9.3231201171875
-1.1707763671875,0.0181884765625,0.11474609375,-4.5928955078125,85.51025390625,-0.274658203125
-1.110107421875,0.013671875,0.0924072265625,-49.31640625,50.46844482421875,-12.9241943359375
-1.03857421875,0.01171875,0.03271484375,-89.8284912109375,15.838623046875,-26.4434814453125
-0.9664306640625,0.0074462890625,-0.044189453125,-120.05615234375,-11.86370849609375,-37.5213623046875
-0.9073486328125,0.0037841796875,-0.123046875,-136.69586181640625,-30.41839599609375,-45.3643798828125
-0.8546142578125,0.0008544921875,-0.1951904296875,-139.1143798828125,-39.6728515625,-50.57525634765625
-0.8055419921875,-0.0047607421875,-0.2525634765625,-128.77655029296875,-40.10009765625,-51.8646240234375
-0.7847900390625,-0.013916015625,-0.29296875,-107.93304443359375,-34.61456298828125,-48.40087890625
-0.7821044921875,-0.029052734375,-0.2998046875,-82.183837890625,-21.98028564453125,-42.205810546875
-0.7816162109375,-0.0364990234375,-0.2840576171875,-57.19757080078125,-3.59344482421875,-41.07666015625
-0.7872314453125,-0.0352783203125,-0.26025390625,-35.54534912109375,10.2996826171875,-43.9300537109375
-0.796875,-0.029296875,-0.2332763671875,-20.11871337890625,20.19500732421875,-47.18017578125
-0.806884765625,-0.0218505859375,-0.210693359375,-11.89422607421875,26.25274658203125,-49.6978759765625
-0.812255859375,-0.0159912109375,-0.1953125,-10.284423828125,29.48760986328125,-51.1932373046875
-0.8236083984375,-0.0146484375,-0.1988525390625,-13.5040283203125,30.7464599609375,-51.82647705078125
-0.8040771484375,-0.0194091796875,-0.2120361328125,-18.4478759765625,31.73065185546875,-53.070068359375
-0.7684326171875,-0.02001953125,-0.2222900390625,-21.98028564453125,39.13116455078125,-53.29132080078125
-0.757568359375,-0.01611328125,-0.23046875,-21.40045166015625,43.69354248046875,-50.23956298828125
-0.7513427734375,-0.0128173828125,-0.2376708984375,-17.791748046875,45.37200927734375,-44.25811767578125
-0.7520751953125,-0.0123291015625,-0.240966796875,-11.810302734375,45.89080810546875,-35.8428955078125
-0.757080078125,-0.01513671875,-0.242431640625,-4.5623779296875,45.43304443359375,-26.79443359375
-0.7720947265625,-0.0216064453125,-0.2432861328125,3.41796875,43.69354248046875,-17.8680419921875
-0.80029296875,-0.0299072265625,-0.2413330078125,11.57379150390625,41.93115234375,-10.27679443359375
-0.8310546875,-0.03466796875,-0.2305908203125,19.4244384765625,39.6575927734375,-5.59234619140625
-0.867919921875,-0.0345458984375,-0.215576171875,25.79498291015625,33.08868408203125,-3.2958984375
-0.8858642578125,-0.0318603515625,-0.2052001953125,29.052734375,22.85003662109375,-2.99072265625
-0.8834228515625,-0.0257568359375,-0.2020263671875,29.083251953125,12.14599609375,-3.875732421875
-0.87109375,-0.0186767578125,-0.19921875,26.64947509765625,4.1961669921875,-4.0740966796875
-0.8572998046875,-0.0146484375,-0.1968994140625,22.36175537109375,-1.8310546875,-1.5869140625
-0.862060546875,-0.0137939453125,-0.1968994140625,16.24298095703125,-6.41632080078125,4.21905517578125
-0.878662109375,-0.0172119140625,-0.20361328125,9.0484619140625,-10.12420654296875,11.383056640625
-0.918701171875,-0.024169921875,-0.210205078125,1.5869140625,-12.97760009765625,19.03533935546875
-0.95751953125,-0.031982421875,-0.2205810546875,-5.54656982421875,-15.56396484375,24.932861328125
-0.997314453125,-0.039306640625,-0.2359619140625,-11.4593505859375,-17.76885986328125,28.83148193359375
-1.041259765625,-0.0447998046875,-0.25634765625,-15.06805419921875,-19.02008056640625,30.303955078125
-1.0830078125,-0.0462646484375,-0.2774658203125,-15.716552734375,-16.8304443359375,29.1900634765625
-1.12451171875,-0.04541015625,-0.29345703125,-12.74871826171875,-11.29150390625,26.580810546875
-1.1456298828125,-0.0457763671875,-0.3134765625,-6.5460205078125,-1.73187255859375,23.88763427734375
-1.1761474609375,-0.044189453125,-0.304931640625,4.486083984375,7.34710693359375,20.6756591796875
-1.1722412109375,-0.0404052734375,-0.2930908203125,16.3421630859375,12.06207275390625,13.946533203125
-1.1610107421875,-0.0386962890625,-0.2642822265625,25.2227783203125,18.1732177734375,8.2855224609375
-1.164794921875,-0.034423828125,-0.2525634765625,29.9530029296875,21.72088623046875,1.38092041015625
-1.2044677734375,-0.02685546875,-0.2431640625,29.3121337890625,28.961181640625,-4.78363037109375
-1.23486328125,-0.0220947265625,-0.2386474609375,23.74267578125,40.6341552734375,-11.16943359375
-1.2559814453125,-0.02880859375,-0.17724609375,15.045166015625,54.5654296875,-17.578125
-1.2464599609375,-0.05810546875,-0.2415771484375,9.7808837890625,61.4776611328125,-24.7802734375
-1.2454833984375,-0.0489501953125,-0.180908203125,23.76556396484375,72.4945068359375,-29.64019775390625
-1.2528076171875,-0.03759765625,-0.1690673828125,33.3404541015625,74.10430908203125,-35.0494384765625
-1.2425537109375,-0.024658203125,-0.1732177734375,31.85272216796875,79.7576904296875,-43.00689697265625
-1.2159423828125,-0.0150146484375,-0.181396484375,23.56719970703125,90.18707275390625,-50.80413818359375
-1.1539306640625,-0.0029296875,-0.192626953125,12.55035400390625,101.6387939453125,-56.78558349609375
-0.91845703125,0.0018310546875,-0.2747802734375,3.54766845703125,114.044189453125,-52.6580810546875
-1.0994873046875,-0.104248046875,-0.19091796875,6.103515625,176.8341064453125,-30.18951416015625
-1.308837890625,0.0208740234375,0.458984375,139.22882080078125,249.99237060546875,3.39508056640625
-1.4027099609375,0.2901611328125,1.091796875,249.99237060546875,230.621337890625,61.9659423828125
-1.4810791015625,0.3262939453125,1.315185546875,249.99237060546875,71.2890625,101.3946533203125
-1.4794921875,0.2894287109375,1.3529052734375,249.99237060546875,-59.07440185546875,105.1788330078125
-1.4432373046875,0.255859375,1.30029296875,249.99237060546875,-110.260009765625,81.24542236328125
-1.355712890625,0.2794189453125,1.087890625,168.3502197265625,-116.87469482421875,38.9556884765625
-1.203857421875,0.32763671875,0.8304443359375,-43.51806640625,-93.39141845703125,-6.65283203125
-1.067138671875,0.351318359375,0.544189453125,-227.783203125,-69.61822509765625,-38.7115478515625
-0.9354248046875,0.2708740234375,0.093505859375,-250.0,-59.50927734375,-52.28424072265625
-0.9136962890625,0.187744140625,-0.108154296875,-250.0,-64.1326904296875,-42.90771484375
-0.8736572265625,0.1142578125,-0.28662109375,-250.0,-73.40240478515625,-27.82440185546875
-0.8682861328125,0.0576171875,-0.4097900390625,-250.0,-76.171875,-12.47406005859375
-0.8250732421875,0.0147705078125,-0.4876708984375,-182.525634765625,-73.6846923828125,1.708984375
-0.808837890625,-0.0084228515625,-0.513427734375,-94.56634521484375,-71.075439453125,18.035888671875
-0.8062744140625,-0.0159912109375,-0.4876708984375,-7.2479248046875,-67.901611328125,34.698486328125
-0.8111572265625,-0.0145263671875,-0.418212890625,68.2830810546875,-63.7359619140625,49.468994140625
-0.816650390625,-0.0120849609375,-0.3170166015625,122.2991943359375,-59.48638916015625,61.42425537109375
-0.8311767578125,-0.01318359375,-0.2122802734375,149.00970458984375,-57.525634765625,69.41986083984375
-0.8406982421875,-0.017578125,-0.11962890625,147.4761962890625,-55.36651611328125,71.58660888671875
-0.84765625,-0.0252685546875,-0.05517578125,121.40655517578125,-53.6346435546875,68.939208984375
-0.84765625,-0.032958984375,-0.0311279296875,78.55224609375,-53.8330078125,62.61444091796875
-0.8414306640625,-0.0394287109375,-0.0455322265625,28.7628173828125,-54.22210693359375,53.91693115234375
-0.8316650390625,-0.0428466796875,-0.084716796875,-18.53179931640625,-53.00140380859375,43.99871826171875
-0.8155517578125,-0.0457763671875,-0.14501953125,-55.33599853515625,-53.5888671875,36.3311767578125
-0.80029296875,-0.05419921875,-0.2142333984375,-75.897216796875,-57.89947509765625,33.31756591796875
-0.7882080078125,-0.0648193359375,-0.2801513671875,-78.30047607421875,-64.99481201171875,33.69140625
-0.770751953125,-0.0726318359375,-0.3309326171875,-64.15557861328125,-70.892333984375,36.32354736328125
-0.7628173828125,-0.0762939453125,-0.355224609375,-37.75787353515625,-74.76043701171875,41.07666015625
-0.752685546875,-0.075439453125,-0.3548583984375,-5.8135986328125,-76.2786865234375,46.3409423828125
-0.7557373046875,-0.0718994140625,-0.3284912109375,25.12359619140625,-75.8056640625,51.68914794921875
-0.7666015625,-0.06884765625,-0.2862548828125,48.60687255859375,-73.61602783203125,55.65643310546875
-0.7801513671875,-0.0675048828125,-0.2388916015625,59.87548828125,-68.93157958984375,56.54144287109375
-0.7899169921875,-0.06640625,-0.2001953125,57.6324462890625,-59.68475341796875,53.3294677734375
-0.7999267578125,-0.06201171875,-0.1748046875,43.609619140625,-46.63848876953125,47.210693359375
-0.8074951171875,-0.0577392578125,-0.1649169921875,21.4691162109375,-31.6009521484375,40.191650390625
-0.81494140625,-0.053466796875,-0.1737060546875,-3.662109375,-16.0064697265625,34.24835205078125
-0.8321533203125,-0.0523681640625,-0.20458984375,-25.70343017578125,-1.57928466796875,30.69305419921875
-0.849365234375,-0.0560302734375,-0.2418212890625,-39.86358642578125,11.4288330078125,29.04510498046875
-0.864990234375,-0.0596923828125,-0.2760009765625,-44.1131591796875,22.77374267578125,29.205322265625
-0.885498046875,-0.0628662109375,-0.3050537109375,-37.66632080078125,30.426025390625,31.13555908203125
-0.912841796875,-0.06396484375,-0.32470703125,-22.69744873046875,35.91156005859375,34.423828125
-0.9488525390625,-0.06396484375,-0.330322265625,-2.777099609375,40.7257080078125,38.7115478515625
-0.9915771484375,-0.06201171875,-0.3192138671875,17.92144775390625,45.49407958984375,42.572021484375
-1.028076171875,-0.0592041015625,-0.2926025390625,34.7900390625,50.52947998046875,44.9676513671875
-1.0645751953125,-0.05810546875,-0.261474609375,44.5098876953125,55.938720703125,45.8221435546875
-1.0921630859375,-0.0567626953125,-0.231201171875,45.6390380859375,61.75994873046875,44.54803466796875
-1.11083984375,-0.05712890625,-0.2078857421875,38.6505126953125,67.46673583984375,41.14532470703125
-1.119873046875,-0.058837890625,-0.1923828125,25.5126953125,73.18878173828125,36.6973876953125
-1.119873046875,-0.0625,-0.18505859375,9.02557373046875,78.2928466796875,31.31103515625
-1.5452880859375,0.4464111328125,1.908203125,-25.93231201171875,61.4471435546875,23.04840087890625
-1.8519287109375,1.032958984375,1.99993896484375,-250.0,-93.231201171875,4.99725341796875
-1.9468994140625,1.035888671875,1.99993896484375,-250.0,-250.0,10.2081298828125
-1.4525146484375,0.7427978515625,1.3525390625,-250.0,-250.0,14.1143798828125
-0.835205078125,0.424072265625,0.530029296875,-250.0,-250.0,20.22552490234375
-0.575439453125,0.2308349609375,0.0093994140625,-250.0,-103.95050048828125,27.6336669921875
-0.625732421875,0.1427001953125,-0.310546875,-250.0,13.12255859375,55.48095703125
-0.8349609375,0.1416015625,-0.398681640625,-102.34832763671875,103.58428955078125,101.66168212890625
-1.0072021484375,0.159912109375,-0.38671875,76.141357421875,123.0621337890625,142.0440673828125
-1.1220703125,0.1785888671875,-0.330322265625,224.37286376953125,93.78814697265625,161.8804931640625
-1.1810302734375,0.183837890625,-0.2442626953125,249.99237060546875,53.497314453125,162.48321533203125
-1.2420654296875,0.1776123046875,-0.13134765625,249.99237060546875,24.7955322265625,151.63421630859375
-1.3148193359375,0.173828125,-0.0164794921875,249.99237060546875,11.78741455078125,133.9263916015625
-1.37255859375,0.1533203125,0.072265625,249.99237060546875,4.81414794921875,108.6273193359375
-1.366943359375,0.135009765625,0.1199951171875,249.99237060546875,14.77813720703125,72.906494140625
-1.3267822265625,0.1300048828125,0.1595458984375,212.28790283203125,39.703369140625,40.55023193359375
-1.3057861328125,0.131591796875,0.1522216796875,114.44091796875,52.42919921875,21.30126953125
-1.3184814453125,0.135009765625,0.0838623046875,23.529052734375,48.30169677734375,12.41302490234375
-1.325439453125,0.1312255859375,-0.0108642578125,-48.83575439453125,38.909912109375,7.01141357421875
-1.277587890625,0.103271484375,-0.1114501953125,-96.88568115234375,26.947021484375,3.021240234375
-1.1766357421875,0.065185546875,-0.204833984375,-119.56787109375,19.18792724609375,-2.716064453125
-1.06787109375,0.0321044921875,-0.2760009765625,-119.01092529296875,21.3623046875,-9.28497314453125
-0.9788818359375,0.0069580078125,-0.31640625,-99.30419921875,29.18243408203125,-13.36669921875
-0.9178466796875,-0.01416015625,-0.329345703125,-66.2994384765625,37.90283203125,-15.2587890625
-0.8846435546875,-0.0262451171875,-0.3092041015625,-26.63421630859375,45.03631591796875,-18.1121826171875
-0.8603515625,-0.0299072265625,-0.2530517578125,11.61956787109375,48.78997802734375,-24.322509765625
-0.83984375,-0.0264892578125,-0.1741943359375,40.70281982421875,42.5872802734375,-32.8369140625
-0.81982421875,-0.0201416015625,-0.0992431640625,54.16107177734375,26.2298583984375,-42.44232177734375
-0.802001953125,-0.01416015625,-0.0438232421875,50.46844482421875,2.63214111328125,-51.90277099609375
-0.794189453125,-0.00732421875,-0.013671875,31.43310546875,-22.77374267578125,-61.83624267578125
-0.7801513671875,0.0020751953125,-0.013916015625,0.84686279296875,-44.19708251953125,-72.99041748046875
-0.76318359375,0.01171875,-0.03857421875,-34.912109375,-60.03570556640625,-83.1756591796875
-0.733154296875,0.018798828125,-0.08740234375,-69.1986083984375,-69.12994384765625,-90.8203125
-0.7021484375,0.0213623046875,-0.1495361328125,-95.60394287109375,-71.52557373046875,-94.78759765625
-0.67333984375,0.0194091796875,-0.214111328125,-109.73358154296875,-68.47381591796875,-94.03228759765625
-0.65380859375,0.01513671875,-0.2720947265625,-109.53521728515625,-61.8743896484375,-88.348388671875
-0.6529541015625,0.0093994140625,-0.318359375,-95.66497802734375,-53.680419921875,-78.28521728515625
-0.6697998046875,0.0028076171875,-0.3446044921875,-71.26617431640625,-43.92242431640625,-65.3839111328125
-0.698486328125,-0.00244140625,-0.3477783203125,-40.8172607421875,-33.447265625,-52.22320556640625
-0.7294921875,-0.00537109375,-0.3289794921875,-9.3536376953125,-24.23858642578125,-40.58837890625
-0.7540283203125,-0.0062255859375,-0.2938232421875,17.98248291015625,-17.425537109375,-31.13555908203125
-0.7764892578125,-0.005859375,-0.2506103515625,37.200927734375,-13.32855224609375,-23.6663818359375
-0.7998046875,-0.0067138671875,-0.21044921875,46.19598388671875,-11.37542724609375,-18.01300048828125
-0.8197021484375,-0.01025390625,-0.1778564453125,44.63958740234375,-9.9029541015625,-14.312744140625
-0.8394775390625,-0.013671875,-0.15673828125,33.89739990234375,-7.10296630859375,-13.43536376953125
-0.860595703125,-0.01611328125,-0.1483154296875,16.65496826171875,-1.251220703125,-15.06805419921875
-0.883544921875,-0.0174560546875,-0.155517578125,-3.082275390625,5.7373046875,-17.8375244140625
-0.9073486328125,-0.0186767578125,-0.176513671875,-21.026611328125,12.8631591796875,-20.74432373046875
-0.927734375,-0.020263671875,-0.20703125,-33.203125,19.76776123046875,-23.65875244140625
-0.9400634765625,-0.02392578125,-0.2371826171875,-37.1246337890625,27.099609375,-25.65765380859375
-0.9532470703125,-0.02490234375,-0.26123046875,-31.62384033203125,33.48541259765625,-27.4200439453125
-0.969970703125,-0.022705078125,-0.2762451171875,-17.93670654296875,38.482666015625,-28.61785888671875
-0.991943359375,-0.0181884765625,-0.2796630859375,1.27410888671875,41.44287109375,-28.43475341796875
-1.0179443359375,-0.0076904296875,-0.2681884765625,22.45330810546875,43.11370849609375,-26.7181396484375
-1.05322265625,0.002685546875,-0.2491455078125,41.80145263671875,42.51861572265625,-23.3001708984375
-1.114501953125,0.0137939453125,-0.222412109375,55.0079345703125,44.921875,-18.7225341796875
-1.1663818359375,0.01806640625,-0.1934814453125,59.9517822265625,47.96600341796875,-16.17431640625
-1.206298828125,0.017822265625,-0.166259765625,56.0302734375,53.26080322265625,-16.30401611328125
-1.263916015625,-0.0052490234375,-0.1226806640625,45.59326171875,57.55615234375,-20.01953125
-1.3118896484375,0.000732421875,0.1044921875,36.9415283203125,59.97467041015625,-26.43585205078125
-1.2916259765625,0.009765625,0.0194091796875,11.83319091796875,45.18890380859375,-36.8194580078125
-1.23828125,0.00244140625,-0.021240234375,-8.01849365234375,45.0286865234375,-45.59326171875
-1.23681640625,0.0087890625,-0.092529296875,-16.79229736328125,44.3115234375,-50.7965087890625
-1.27587890625,0.0157470703125,-0.1683349609375,-19.47784423828125,45.074462890625,-53.58123779296875
-1.3231201171875,0.025146484375,-0.22119140625,-14.57977294921875,49.84283447265625,-55.17578125
-1.343017578125,0.029541015625,-0.24560546875,-4.0283203125,56.35833740234375,-56.0455322265625
-1.320556640625,0.027587890625,-0.2476806640625,9.33074951171875,61.187744140625,-58.4716796875
-1.298583984375,0.029541015625,-0.2479248046875,22.51434326171875,62.896728515625,-61.6302490234375
-1.2947998046875,0.036865234375,-0.2537841796875,34.15679931640625,63.4307861328125,-64.94140625
-1.283447265625,0.041748046875,-0.25,43.28155517578125,67.55828857421875,-68.18389892578125
-1.2508544921875,0.0472412109375,-0.2373046875,49.24774169921875,74.22637939453125,-72.3114013671875
-1.2056884765625,0.047119140625,-0.224365234375,51.62811279296875,79.93316650390625,-76.47705078125
-1.15771484375,0.0465087890625,-0.2174072265625,49.896240234375,86.40289306640625,-79.1015625
-1.107421875,0.0452880859375,-0.2197265625,45.7916259765625,93.963623046875,-80.65032958984375
-1.068603515625,0.0428466796875,-0.236572265625,41.51153564453125,104.13360595703125,-80.14678955078125
-1.0576171875,0.044677734375,-0.2406005859375,39.00146484375,119.0032958984375,-75.5157470703125
-1.0557861328125,0.0455322265625,-0.233642578125,39.05487060546875,129.364013671875,-69.09942626953125
-1.052734375,0.0362548828125,-0.2283935546875,39.9169921875,134.6588134765625,-61.51580810546875
-1.003662109375,-0.078125,-0.3876953125,74.16534423828125,115.6158447265625,-49.4384765625
-1.0517578125,0.054443359375,-0.290771484375,249.99237060546875,65.40679931640625,-18.01300048828125
-1.005859375,0.1817626953125,0.0020751953125,249.99237060546875,66.2689208984375,0.6866455078125
-1.036376953125,0.2135009765625,0.30712890625,249.99237060546875,77.972412109375,9.5367431640625
-1.07666015625,0.2125244140625,0.81787109375,249.99237060546875,93.43719482421875,7.27081298828125
-1.0587158203125,0.132568359375,0.7989501953125,249.99237060546875,76.65252685546875,-5.50079345703125
-1.030029296875,0.0584716796875,0.737548828125,195.9686279296875,29.0374755859375,-13.7481689453125
-0.9732666015625,0.0289306640625,0.641845703125,118.78204345703125,-7.293701171875,-22.94921875
-0.913818359375,0.0364990234375,0.587158203125,44.7845458984375,-26.458740234375,-32.27996826171875
-0.8570556640625,0.0299072265625,0.4730224609375,-28.52630615234375,-41.839599609375,-39.306640625
-0.7978515625,0.01806640625,0.342529296875,-89.7979736328125,-55.0079345703125,-43.060302734375
-0.7392578125,0.014404296875,0.204833984375,-135.10894775390625,-65.36865234375,-44.22760009765625
-0.687744140625,0.0203857421875,0.07177734375,-164.5660400390625,-70.61767578125,-42.4346923828125
-0.64501953125,0.021240234375,-0.05322265625,-178.53546142578125,-73.37188720703125,-36.529541015625
-0.6192626953125,0.013916015625,-0.1627197265625,-176.2847900390625,-75.68359375,-25.26092529296875
-0.608642578125,0.00244140625,-0.2569580078125,-157.7301025390625,-77.96478271484375,-9.97161865234375
-0.616943359375,-0.0118408203125,-0.323974609375,-124.51934814453125,-77.53753662109375,7.27081298828125
-0.633544921875,-0.0240478515625,-0.3575439453125,-81.298828125,-73.2879638671875,24.51324462890625
-0.6591796875,-0.0322265625,-0.3597412109375,-34.5916748046875,-67.0013427734375,40.21453857421875
-0.6986083984375,-0.0357666015625,-0.333984375,9.063720703125,-60.61553955078125,53.55072021484375
-0.7471923828125,-0.035888671875,-0.290283203125,43.00689697265625,-53.7261962890625,63.8580322265625
-0.802734375,-0.0357666015625,-0.2376708984375,63.13323974609375,-46.56219482421875,70.6329345703125
-0.84765625,-0.04345703125,-0.1796875,69.08416748046875,-37.7349853515625,73.86016845703125
-0.9344482421875,-0.1756591796875,-0.060546875,64.68963623046875,-31.15081787109375,73.8983154296875
-0.9874267578125,-0.2880859375,-0.0037841796875,36.53717041015625,-23.8494873046875,63.65966796875
-0.9754638671875,-0.266357421875,-0.03564453125,-3.56292724609375,-17.8375244140625,47.52349853515625
-0.9443359375,-0.199462890625,-0.1085205078125,-35.4766845703125,-14.30511474609375,36.041259765625
-0.923095703125,-0.1563720703125,-0.1827392578125,-51.1932373046875,-12.80975341796875,31.036376953125
-0.9019775390625,-0.129150390625,-0.2451171875,-51.27716064453125,-11.10076904296875,29.8614501953125
-0.879150390625,-0.109619140625,-0.2841796875,-38.16986083984375,-9.40704345703125,30.670166015625
-0.8525390625,-0.0943603515625,-0.3009033203125,-16.2200927734375,-7.8582763671875,32.69195556640625
-0.8328857421875,-0.079345703125,-0.2957763671875,9.3231201171875,-6.0882568359375,36.04888916015625
-0.8267822265625,-0.06494140625,-0.2740478515625,32.58514404296875,-3.5552978515625,40.00091552734375
-0.831787109375,-0.051513671875,-0.2398681640625,48.88916015625,-0.42724609375,43.81561279296875
-0.842529296875,-0.041015625,-0.2005615234375,55.22918701171875,3.34930419921875,47.01995849609375
-0.8619384765625,-0.0338134765625,-0.1688232421875,50.52947998046875,7.1258544921875,49.6673583984375
-0.8922119140625,-0.028076171875,-0.1524658203125,36.2701416015625,11.199951171875,52.0172119140625
-0.935546875,-0.0546875,-0.16845703125,15.98358154296875,16.2353515625,54.26788330078125
-0.97216796875,-0.0989990234375,-0.0985107421875,14.251708984375,27.4810791015625,59.906005859375
-1.04296875,-0.130615234375,0.0416259765625,53.27606201171875,29.28924560546875,71.64764404296875
-1.1246337890625,-0.1419677734375,0.227294921875,106.08673095703125,16.510009765625,84.1064453125
-1.18994140625,-0.1468505859375,0.3909912109375,137.420654296875,-0.49591064453125,90.51513671875
-1.2138671875,-0.1361083984375,0.5545654296875,136.94000244140625,-13.0462646484375,88.92822265625
-1.249267578125,-0.1124267578125,0.6343994140625,104.75921630859375,-24.261474609375,80.4901123046875
-1.25341796875,-0.107666015625,0.7427978515625,53.0548095703125,-22.30072021484375,69.1680908203125
-1.2196044921875,-0.0926513671875,0.7540283203125,-5.31005859375,-30.66253662109375,56.854248046875
-1.167236328125,-0.0567626953125,0.621826171875,-56.89239501953125,-61.4471435546875,47.63031005859375
-1.1480712890625,-0.0233154296875,0.391845703125,-103.02734375,-93.77288818359375,42.0684814453125
-1.1151123046875,0.0009765625,0.169677734375,-143.890380859375,-96.5423583984375,40.24505615234375
-1.0870361328125,0.000732421875,0.015869140625,-159.66033935546875,-78.460693359375,42.28973388671875
-1.036865234375,-0.0103759765625,-0.0743408203125,-156.91375732421875,-52.3529052734375,44.47174072265625
-1.031005859375,-0.0191650390625,-0.15771484375,-148.101806640625,-31.2957763671875,48.5382080078125
-1.073974609375,-0.02490234375,-0.2318115234375,-131.8359375,-14.8773193359375,54.74853515625
-1.1160888671875,-0.0286865234375,-0.2896728515625,-106.9183349609375,-2.0599365234375,60.29510498046875
-1.1397705078125,-0.0269775390625,-0.311279296875,-74.33319091796875,7.2479248046875,64.17083740234375
-1.1497802734375,-0.02392578125,-0.3111572265625,-38.970947265625,11.53564453125,67.37518310546875
-1.1754150390625,-0.0152587890625,-0.29296875,-5.11932373046875,12.47406005859375,69.244384765625
-1.199951171875,-0.00537109375,-0.258544921875,22.4151611328125,13.92364501953125,68.50433349609375
-1.2110595703125,0.0030517578125,-0.2176513671875,40.93170166015625,14.434814453125,64.91851806640625
-1.21728515625,0.0045166015625,-0.1346435546875,52.00958251953125,15.9759521484375,59.01336669921875
-1.21826171875,0.0277099609375,-0.109375,57.39593505859375,12.0391845703125,52.28424072265625
-1.2149658203125,0.0389404296875,-0.083740234375,51.4678955078125,5.63812255859375,49.55291748046875
-1.2171630859375,0.030517578125,-0.0721435546875,34.1339111328125,2.3956298828125,47.05047607421875
-1.204833984375,0.0308837890625,-0.0595703125,7.8887939453125,10.284423828125,39.20745849609375
-1.2000732421875,0.037109375,0.004150390625,-18.04351806640625,15.54107666015625,31.54754638671875
-1.201416015625,0.0379638671875,-0.0211181640625,-38.909912109375,3.42559814453125,25.26092529296875
-1.1866455078125,0.0322265625,-0.0657958984375,-57.8460693359375,-12.908935546875,19.06585693359375
-1.153564453125,0.0262451171875,-0.1201171875,-70.54901123046875,-25.2532958984375,11.13128662109375
-1.1038818359375,0.0211181640625,-0.16357421875,-74.07379150390625,-33.28704833984375,2.72369384765625
-1.0494384765625,0.014892578125,-0.198974609375,-68.56536865234375,-40.496826171875,-4.35638427734375
-0.9886474609375,0.009033203125,-0.225830078125,-55.9539794921875,-45.47882080078125,-9.6435546875
-0.931396484375,0.0081787109375,-0.239501953125,-38.06304931640625,-47.9736328125,-13.37432861328125
-0.876953125,0.009521484375,-0.2330322265625,-18.08929443359375,-47.5921630859375,-15.5792236328125
-0.8240966796875,0.011474609375,-0.2115478515625,-0.7171630859375,-46.30279541015625,-15.7928466796875
-0.7877197265625,0.015625,-0.178955078125,12.07733154296875,-45.135498046875,-14.22119140625
-0.7674560546875,0.0179443359375,-0.1527099609375,19.6075439453125,-43.9605712890625,-11.383056640625
-0.7552490234375,0.020751953125,-0.1314697265625,19.95086669921875,-40.9393310546875,-9.08660888671875
-0.741943359375,0.0228271484375,-0.112060546875,14.0380859375,-35.48431396484375,-7.9498291015625
-0.7296142578125,0.0234375,-0.1025390625,3.02886962890625,-29.31976318359375,-6.89697265625
-0.7208251953125,0.0208740234375,-0.1064453125,-10.59722900390625,-22.39990234375,-5.91278076171875
-0.7171630859375,0.0162353515625,-0.11962890625,-24.2156982421875,-14.495849609375,-5.24139404296875
-0.7191162109375,0.0133056640625,-0.13720703125,-36.04888916015625,-4.4708251953125,-5.06591796875
-0.728515625,0.010986328125,-0.1607666015625,-43.98345947265625,5.11932373046875,-4.11224365234375
-0.74169921875,0.006591796875,-0.185302734375,-46.56219482421875,13.2293701171875,-1.96075439453125
-0.751708984375,0.0013427734375,-0.204345703125,-42.88482666015625,20.0958251953125,1.01470947265625
-0.7628173828125,-0.004150390625,-0.2169189453125,-33.447265625,25.13885498046875,4.364013671875
-0.7779541015625,-0.0076904296875,-0.2227783203125,-19.6533203125,28.29742431640625,7.59124755859375
-0.79296875,-0.00927734375,-0.2215576171875,-3.47900390625,30.06744384765625,10.101318359375
-0.8184814453125,-0.00830078125,-0.2147216796875,12.96234130859375,31.0821533203125,11.92474365234375
-0.840576171875,-0.0086669921875,-0.19970703125,27.25982666015625,32.4859619140625,13.03863525390625
-0.85888671875,-0.0084228515625,-0.178955078125,37.5823974609375,34.4696044921875,12.481689453125
-0.8748779296875,-0.007568359375,-0.1580810546875,43.23577880859375,35.25543212890625,10.56671142578125
-0.8858642578125,-0.0068359375,-0.140625,43.83087158203125,35.4461669921875,7.781982421875
-0.8924560546875,-0.006591796875,-0.1270751953125,40.03143310546875,35.46142578125,4.3487548828125
-0.89501953125,-0.0068359375,-0.1199951171875,32.79876708984375,35.46905517578125,0.57220458984375
-0.89794921875,-0.007568359375,-0.1199951171875,23.88763427734375,35.2630615234375,-3.12042236328125
-0.9039306640625,-0.0087890625,-0.1290283203125,15.41900634765625,34.47723388671875,-6.683349609375
-0.9166259765625,-0.009033203125,-0.1446533203125,9.19342041015625,33.3099365234375,-10.1165771484375
-0.9322509765625,-0.0076904296875,-0.162841796875,6.3934326171875,32.3486328125,-12.97760009765625
-0.952880859375,-0.0062255859375,-0.181640625,7.63702392578125,31.31866455078125,-15.08331298828125
-0.981201171875,-0.004150390625,-0.1998291015625,12.908935546875,30.34210205078125,-16.47186279296875
-1.0167236328125,0.0006103515625,-0.2149658203125,21.6217041015625,29.754638671875,-17.242431640625
-1.05615234375,0.006591796875,-0.2215576171875,32.65380859375,29.83856201171875,-17.39501953125
-1.0986328125,0.014404296875,-0.2183837890625,44.0826416015625,29.9224853515625,-17.1661376953125
-1.1357421875,0.021728515625,-0.207763671875,53.7872314453125,29.6478271484375,-16.85333251953125
-1.16162109375,0.026123046875,-0.1903076171875,59.92889404296875,28.7933349609375,-16.89910888671875
-1.169189453125,0.0264892578125,-0.1700439453125,61.16485595703125,27.13775634765625,-18.11981201171875
-1.1668701171875,0.025146484375,-0.1534423828125,56.54144287109375,25.3448486328125,-20.660400390625
-1.1688232421875,0.0240478515625,-0.148193359375,46.36383056640625,25.19989013671875,-24.71923828125
-1.2025146484375,0.0279541015625,-0.1624755859375,32.44781494140625,27.87017822265625,-28.74755859375
-1.2567138671875,0.0325927734375,-0.1885986328125,18.2952880859375,34.698486328125,-31.92138671875
-1.295654296875,0.03173828125,-0.214111328125,7.2174072265625,44.57855224609375,-35.003662109375
-1.129150390625,0.0411376953125,-0.2034912109375,-0.43487548828125,55.4962158203125,-34.332275390625
-1.256103515625,0.052490234375,-0.31689453125,1.70135498046875,56.4422607421875,-19.3939208984375
-1.3662109375,0.055908203125,-0.351318359375,17.69256591796875,95.5047607421875,-15.167236328125
-1.3402099609375,0.0511474609375,-0.33056640625,39.61181640625,140.5181884765625,-20.8282470703125
-1.4078369140625,0.0599365234375,-0.3536376953125,62.55340576171875,168.76220703125,-25.30670166015625
-1.442138671875,0.0789794921875,-0.3133544921875,84.48028564453125,207.244873046875,-34.8052978515625
-1.3558349609375,0.1669921875,-0.48828125,123.86322021484375,240.7379150390625,-45.562744140625
-1.673095703125,0.59912109375,1.529052734375,249.99237060546875,176.33056640625,-27.16064453125
-1.6370849609375,0.61767578125,1.705322265625,249.99237060546875,-12.18414306640625,-26.4892578125
-1.372314453125,0.487548828125,1.2093505859375,249.57275390625,-88.2110595703125,-40.679931640625
-1.32275390625,0.38525390625,0.8916015625,163.726806640625,-63.63677978515625,-64.483642578125
-1.191162109375,0.2998046875,0.697021484375,86.1968994140625,-14.9383544921875,-99.18212890625
-1.06103515625,0.2362060546875,0.506591796875,16.47186279296875,-8.50677490234375,-120.54443359375
-0.966552734375,0.185302734375,0.2874755859375,-41.656494140625,-27.4810791015625,-123.4130859375
-0.8912353515625,0.14013671875,0.0777587890625,-81.5887451171875,-43.64776611328125,-111.47308349609375
-0.8411865234375,0.1011962890625,-0.0982666015625,-96.3897705078125,-52.398681640625,-89.5538330078125
-0.81201171875,0.070068359375,-0.233642578125,-85.97564697265625,-55.94635009765625,-62.33978271484375
-0.7855224609375,0.040771484375,-0.322021484375,-54.0924072265625,-59.22698974609375,-30.54046630859375
-0.767822265625,0.0172119140625,-0.361083984375,-7.7362060546875,-63.97247314453125,4.20379638671875
-0.771728515625,0.0010986328125,-0.35986328125,44.4793701171875,-70.281982421875,35.308837890625
-0.787841796875,-0.0059814453125,-0.3199462890625,92.34619140625,-73.6083984375,59.59320068359375
-0.8035888671875,-0.01025390625,-0.2508544921875,127.43377685546875,-76.74407958984375,77.850341796875
-0.819580078125,-0.0166015625,-0.1685791015625,143.77593994140625,-83.06121826171875,91.83502197265625
-0.82568359375,-0.0283203125,-0.0941162109375,138.336181640625,-91.23992919921875,100.738525390625
-0.8331298828125,-0.044189453125,-0.0445556640625,112.61749267578125,-98.50311279296875,103.21807861328125
-0.838623046875,-0.06005859375,-0.0220947265625,71.7010498046875,-100.982666015625,97.67913818359375
-0.8284912109375,-0.074462890625,-0.0322265625,23.193359375,-100.02899169921875,84.5184326171875
-0.810546875,-0.084228515625,-0.0750732421875,-23.7884521484375,-97.8240966796875,67.32940673828125
-0.7916259765625,-0.08984375,-0.142333984375,-60.546875,-94.76470947265625,49.14093017578125
-0.7706298828125,-0.0933837890625,-0.22021484375,-80.6884765625,-91.766357421875,33.0047607421875
-0.75634765625,-0.0960693359375,-0.2958984375,-81.512451171875,-88.92059326171875,21.75140380859375
-0.75146484375,-0.098388671875,-0.3543701171875,-64.29290771484375,-84.41162109375,15.2130126953125
-0.7569580078125,-0.095947265625,-0.381591796875,-33.83636474609375,-77.24761962890625,12.0849609375
-0.772705078125,-0.08935546875,-0.3778076171875,2.66265869140625,-68.359375,10.79559326171875
-0.791259765625,-0.080078125,-0.34521484375,37.1551513671875,-58.47930908203125,9.74273681640625
-0.813720703125,-0.0675048828125,-0.294921875,62.73651123046875,-48.15673828125,7.9803466796875
-0.836181640625,-0.0550537109375,-0.2392578125,75.13427734375,-37.91046142578125,5.2337646484375
-0.8521728515625,-0.044921875,-0.18603515625,72.998046875,-27.862548828125,1.25885009765625
-0.8531494140625,-0.035888671875,-0.14697265625,57.403564453125,-18.10455322265625,-4.00543212890625
-0.8427734375,-0.0281982421875,-0.128662109375,32.5775146484375,-9.735107421875,-9.21630859375
-0.8265380859375,-0.023681640625,-0.133056640625,3.94439697265625,-2.7008056640625,-13.4429931640625
-0.8033447265625,-0.020751953125,-0.1561279296875,-22.857666015625,3.57818603515625,-16.1590576171875
-0.78466796875,-0.0216064453125,-0.1943359375,-42.73223876953125,8.7127685546875,-16.0369873046875
-0.77587890625,-0.0245361328125,-0.2362060546875,-52.75726318359375,14.10675048828125,-12.93182373046875
-0.7711181640625,-0.0284423828125,-0.27099609375,-52.36053466796875,20.56121826171875,-8.06427001953125
-0.7745361328125,-0.0338134765625,-0.2921142578125,-42.8009033203125,27.18353271484375,-1.85394287109375
-0.7884521484375,-0.0382080078125,-0.29638671875,-27.5115966796875,33.66851806640625,4.96673583984375
-0.8167724609375,-0.0419921875,-0.287841796875,-10.8184814453125,39.43634033203125,11.505126953125
-0.8619384765625,-0.044189453125,-0.27099609375,3.2196044921875,45.318603515625,16.78466796875
-0.917236328125,-0.0458984375,-0.248046875,11.505126953125,51.87225341796875,20.1416015625
-0.975341796875,-0.047119140625,-0.2244873046875,12.359619140625,58.89892578125,21.30889892578125
-1.025390625,-0.047119140625,-0.2061767578125,5.7830810546875,65.704345703125,20.5078125
-1.0648193359375,-0.0462646484375,-0.196533203125,-6.52313232421875,71.57135009765625,18.97430419921875
-1.0906982421875,-0.04638671875,-0.1966552734375,-21.7742919921875,75.67596435546875,16.7999267578125
-1.1097412109375,-0.0469970703125,-0.2103271484375,-36.68975830078125,77.362060546875,14.4805908203125
-1.1234130859375,-0.0491943359375,-0.2344970703125,-48.56109619140625,78.857421875,13.00811767578125
-1.07861328125,0.0294189453125,-0.2510986328125,-54.1839599609375,78.43017578125,12.725830078125
-1.3651123046875,0.4180908203125,0.133056640625,59.539794921875,-25.68817138671875,59.70001220703125
-1.31591796875,0.5625,0.5421142578125,249.99237060546875,-187.164306640625,134.34600830078125
-1.1871337890625,0.8128662109375,1.5389404296875,249.99237060546875,-220.245361328125,165.679931640625
-1.1510009765625,0.715576171875,1.786865234375,249.99237060546875,-118.33953857421875,136.71112060546875
-1.173095703125,0.578857421875,1.647705078125,249.99237060546875,-13.153076171875,63.78173828125
-1.0482177734375,0.5115966796875,1.443115234375,126.64794921875,44.891357421875,-4.44793701171875
-1.0125732421875,0.512451171875,1.1287841796875,-85.47210693359375,29.72412109375,-44.6014404296875
-1.0693359375,0.4537353515625,0.6826171875,-250.0,-15.02227783203125,-47.210693359375
-1.1744384765625,0.3280029296875,0.360107421875,-250.0,-72.83782958984375,-18.71490478515625
-1.115234375,0.2423095703125,0.122314453125,-250.0,-75.7293701171875,-14.91546630859375
-1.070556640625,0.18017578125,-0.05322265625,-250.0,-53.497314453125,-20.86639404296875
-1.051025390625,0.140380859375,-0.1766357421875,-250.0,-23.5137939453125,-23.44512939453125
-1.072265625,0.11865234375,-0.2696533203125,-215.5303955078125,3.41796875,-17.46368408203125
-1.1024169921875,0.1031494140625,-0.3270263671875,-169.88372802734375,27.16827392578125,-6.3018798828125
-1.1571044921875,0.0819091796875,-0.365966796875,-118.43109130859375,47.17254638671875,9.0484619140625
-1.21875,0.072265625,-0.3416748046875,-66.84112548828125,77.43072509765625,20.46966552734375
-1.2681884765625,0.0794677734375,-0.2662353515625,-21.21734619140625,103.46221923828125,26.580810546875
-1.3018798828125,0.0899658203125,-0.1708984375,12.85552978515625,104.83551025390625,32.70721435546875
-1.2989501953125,0.0823974609375,-0.0941162109375,31.73828125,80.0018310546875,39.00909423828125
-1.2667236328125,0.0623779296875,-0.0513916015625,36.35406494140625,42.33551025390625,40.01617431640625
-1.2410888671875,0.0494384765625,-0.027587890625,29.815673828125,5.16510009765625,33.65325927734375
-1.21142578125,0.0445556640625,-0.020263671875,14.0380859375,-27.22930908203125,20.9197998046875
-1.137451171875,0.043212890625,-0.0372314453125,-8.41522216796875,-53.680419921875,3.71551513671875
-1.0703125,0.046142578125,-0.075439453125,-31.86798095703125,-72.50213623046875,-12.04681396484375
-0.9954833984375,0.0322265625,-0.12744140625,-52.642822265625,-83.1298828125,-23.345947265625
-0.89501953125,0.01806640625,-0.168212890625,-69.7021484375,-71.2890625,-36.39984130859375
-0.806396484375,0.012451171875,-0.2080078125,-78.9031982421875,-52.276611328125,-49.13330078125
-0.7431640625,0.0111083984375,-0.2471923828125,-77.52227783203125,-36.8194580078125,-55.6640625
-0.6993408203125,0.0113525390625,-0.2769775390625,-66.41387939453125,-23.9410400390625,-55.32073974609375
-0.6724853515625,0.0108642578125,-0.28955078125,-48.34747314453125,-12.22991943359375,-49.58343505859375
-0.65869140625,0.0084228515625,-0.285888671875,-27.5421142578125,-0.9002685546875,-40.61126708984375
-0.65771484375,0.00732421875,-0.2681884765625,-7.66754150390625,8.758544921875,-30.6854248046875
-0.6719970703125,0.00732421875,-0.2420654296875,8.056640625,15.9454345703125,-20.65277099609375
-0.690673828125,0.0074462890625,-0.2164306640625,17.67730712890625,20.86639404296875,-11.5814208984375
-0.70556640625,0.0052490234375,-0.19287109375,20.69854736328125,23.92578125,-3.68499755859375
-0.71044921875,-0.00146484375,-0.1776123046875,18.02825927734375,25.55084228515625,2.9296875
-0.71337890625,-0.0108642578125,-0.171875,11.68060302734375,26.2451171875,7.7972412109375
-0.7047119140625,-0.0203857421875,-0.1787109375,4.2724609375,26.81732177734375,10.59722900390625
-0.70654296875,-0.028564453125,-0.19140625,-0.86212158203125,26.7791748046875,12.2833251953125
-0.7127685546875,-0.03271484375,-0.2099609375,-2.2430419921875,26.519775390625,13.1988525390625
-0.724365234375,-0.0350341796875,-0.227294921875,0.885009765625,26.6265869140625,14.47296142578125
-0.7423095703125,-0.0362548828125,-0.236328125,8.30078125,27.06146240234375,16.70074462890625
-0.7677001953125,-0.036376953125,-0.238037109375,18.69964599609375,26.641845703125,19.2413330078125
-0.796630859375,-0.0350341796875,-0.2366943359375,29.8614501953125,26.123046875,21.61407470703125
-0.8341064453125,-0.03515625,-0.224853515625,41.046142578125,23.7579345703125,23.17047119140625
-0.8609619140625,-0.035400390625,-0.207275390625,49.835205078125,19.81353759765625,22.17864990234375
-0.8792724609375,-0.035888671875,-0.1864013671875,54.2144775390625,14.9078369140625,19.15740966796875
-0.9005126953125,-0.0321044921875,-0.1688232421875,53.4820556640625,7.9345703125,15.09857177734375
-0.931640625,-0.0272216796875,-0.162353515625,47.760009765625,0.579833984375,10.62774658203125
-0.9583740234375,-0.0234375,-0.1683349609375,38.09356689453125,-4.47845458984375,6.7901611328125
-0.99072265625,-0.021484375,-0.1773681640625,26.9622802734375,-7.6904296875,3.72314453125
-1.013916015625,-0.022216796875,-0.1864013671875,15.64788818359375,-9.674072265625,-0.06866455078125
-1.029541015625,-0.021240234375,-0.1998291015625,5.07354736328125,-10.49041748046875,-4.73785400390625
-1.079833984375,-0.0418701171875,-0.1995849609375,-12.56561279296875,-15.40374755859375,-10.87188720703125
-1.0877685546875,-0.0184326171875,-0.2935791015625,-69.9310302734375,-7.049560546875,-23.5748291015625
-1.0989990234375,-0.0128173828125,-0.3836669921875,-100.36468505859375,9.89532470703125,-30.09796142578125
-1.1181640625,-0.016845703125,-0.4661865234375,-96.8475341796875,24.139404296875,-29.15191650390625
-1.1334228515625,-0.0220947265625,-0.526123046875,-64.61334228515625,35.7666015625,-25.1312255859375
-1.1160888671875,-0.0325927734375,-0.515869140625,-18.89801025390625,44.8455810546875,-23.0560302734375
-1.0897216796875,-0.0267333984375,-0.50634765625,23.6053466796875,56.0150146484375,-20.660400390625
-1.1158447265625,-0.0126953125,-0.4603271484375,70.4498291015625,64.20135498046875,-14.88494873046875
-1.225830078125,0.0091552734375,-0.4071044921875,109.53521728515625,72.845458984375,-8.2855224609375
-1.360595703125,0.0220947265625,-0.3353271484375,131.35528564453125,83.8775634765625,-3.16619873046875
-1.41748046875,0.0263671875,-0.2501220703125,128.76129150390625,94.879150390625,-4.180908203125
-1.391845703125,0.01611328125,-0.1700439453125,110.48126220703125,97.6409912109375,-10.24627685546875
-1.3170166015625,0.0028076171875,-0.1236572265625,79.61273193359375,92.38433837890625,-20.0958251953125
-1.274658203125,-0.00830078125,-0.1224365234375,43.0908203125,80.87921142578125,-31.16607666015625
-1.218017578125,-0.018310546875,-0.17822265625,9.01031494140625,70.86181640625,-43.31207275390625
-0.9947509765625,-0.0313720703125,-0.2984619140625,-10.5743408203125,61.09619140625,-49.84283447265625
-1.15234375,-0.02197265625,-0.4937744140625,-6.89697265625,92.64373779296875,-42.17529296875
-1.2603759765625,0.005859375,-0.4798583984375,18.4478759765625,228.95050048828125,-50.23956298828125
-1.8046875,0.671142578125,1.92138671875,53.985595703125,220.95489501953125,-45.5780029296875
-1.38818359375,0.772705078125,1.6739501953125,72.48687744140625,-77.667236328125,-5.859375
-1.1107177734375,0.8983154296875,1.99993896484375,100.5706787109375,-175.80413818359375,25.0701904296875
-1.0631103515625,0.726318359375,1.6668701171875,96.83990478515625,-79.46014404296875,8.1024169921875
-1.077880859375,0.5570068359375,1.305908203125,99.365234375,2.99072265625,-0.6103515625
-1.1478271484375,0.4141845703125,0.9990234375,93.00994873046875,28.16009521484375,12.1917724609375
-1.1580810546875,0.296142578125,0.7493896484375,71.380615234375,1.373291015625,21.484375
-1.1793212890625,0.202880859375,0.439697265625,43.8690185546875,-55.023193359375,28.16009521484375
-1.188720703125,0.13720703125,0.1865234375,24.63531494140625,-99.63226318359375,34.97314453125
-1.1683349609375,0.0919189453125,0.0179443359375,15.31219482421875,-113.2965087890625,39.0625
-1.0791015625,0.0667724609375,-0.0853271484375,14.0380859375,-107.6812744140625,39.31427001953125
-0.995361328125,0.0465087890625,-0.15380859375,20.48492431640625,-102.23388671875,46.83685302734375
-0.943115234375,0.0228271484375,-0.1712646484375,31.21185302734375,-93.9178466796875,61.22589111328125
-0.9249267578125,0.0009765625,-0.161865234375,39.84832763671875,-85.540771484375,74.4476318359375
-0.9339599609375,-0.014404296875,-0.1407470703125,42.0989990234375,-77.62908935546875,81.84814453125
-0.9483642578125,-0.0262451171875,-0.1151123046875,36.6668701171875,-71.34246826171875,82.9925537109375
-0.9178466796875,-0.0382080078125,-0.1243896484375,23.67401123046875,-68.97735595703125,78.31573486328125
-0.8812255859375,-0.0517578125,-0.106689453125,6.06536865234375,-68.359375,69.4122314453125
-0.8311767578125,-0.058349609375,-0.131103515625,-13.83209228515625,-65.36865234375,57.2052001953125
-0.7822265625,-0.0618896484375,-0.1650390625,-31.5399169921875,-62.19482421875,43.3349609375
-0.7403564453125,-0.0631103515625,-0.1915283203125,-43.2891845703125,-58.64715576171875,30.4412841796875
-0.716796875,-0.064208984375,-0.2203369140625,-47.00469970703125,-54.26025390625,20.22552490234375
-0.7137451171875,-0.0625,-0.2432861328125,-42.22869873046875,-50.57525634765625,12.20703125
-0.7257080078125,-0.0570068359375,-0.2620849609375,-30.08270263671875,-47.79815673828125,6.134033203125
-0.7501220703125,-0.04931640625,-0.2679443359375,-12.9241943359375,-44.9676513671875,1.99127197265625
-0.7769775390625,-0.040283203125,-0.2593994140625,5.59234619140625,-41.83197021484375,-1.45721435546875
-0.7967529296875,-0.031005859375,-0.2388916015625,21.2249755859375,-38.38348388671875,-4.85992431640625
-0.8125,-0.02099609375,-0.2142333984375,30.8380126953125,-34.149169921875,-8.44573974609375
-0.8253173828125,-0.0111083984375,-0.1890869140625,33.1268310546875,-29.21295166015625,-12.50457763671875
-0.830810546875,-0.001708984375,-0.169677734375,28.38134765625,-23.29254150390625,-17.09747314453125
-0.8316650390625,0.0062255859375,-0.1585693359375,18.0816650390625,-16.448974609375,-21.2554931640625
-0.824462890625,0.0133056640625,-0.1578369140625,4.6844482421875,-9.3536376953125,-24.2767333984375
-0.822998046875,0.0811767578125,-0.1416015625,-9.08660888671875,-2.0904541015625,-25.604248046875
-0.7720947265625,0.1490478515625,-0.15869140625,-37.20855712890625,5.0048828125,-26.49688720703125
-0.7548828125,0.1090087890625,-0.2149658203125,-70.2667236328125,15.4571533203125,-23.0865478515625
-0.750244140625,0.0771484375,-0.2767333984375,-81.512451171875,20.82061767578125,-17.46368408203125
-0.755615234375,0.052001953125,-0.3206787109375,-72.60894775390625,24.94049072265625,-10.16998291015625
-0.7686767578125,0.032958984375,-0.339599609375,-48.6602783203125,28.1219482421875,-1.251220703125
-0.7919921875,0.01953125,-0.333740234375,-17.12799072265625,29.36553955078125,7.8125
-0.8226318359375,0.013427734375,-0.3013916015625,14.373779296875,29.937744140625,15.22064208984375
-0.8583984375,0.011962890625,-0.255126953125,38.33770751953125,30.20477294921875,20.31707763671875
-0.9051513671875,0.0111083984375,-0.204833984375,49.4537353515625,31.76116943359375,22.94921875
-0.953857421875,0.009765625,-0.1585693359375,45.38726806640625,36.9110107421875,22.8271484375
-1.0050048828125,0.009033203125,-0.124755859375,27.1148681640625,44.8150634765625,20.751953125
-1.05517578125,0.009033203125,-0.111083984375,-1.03759765625,53.09295654296875,16.97540283203125
-1.09521484375,0.0093994140625,-0.118896484375,-33.4320068359375,61.1572265625,12.20703125
-1.1297607421875,0.010498046875,-0.141357421875,-63.88092041015625,67.2149658203125,7.6904296875
-1.5877685546875,0.6072998046875,1.303466796875,-95.703125,40.1458740234375,6.72149658203125
-1.635498046875,0.9993896484375,1.6905517578125,-195.80841064453125,-138.5650634765625,30.426025390625
-1.20068359375,0.89501953125,1.7459716796875,-250.0,-250.0,72.6318359375
-0.9576416015625,0.622802734375,1.6640625,-250.0,-169.36492919921875,51.45263671875
-0.9205322265625,0.438720703125,1.3314208984375,-250.0,-121.26922607421875,39.0472412109375
-0.8399658203125,0.2874755859375,0.9066162109375,-150.50506591796875,-113.13629150390625,38.1622314453125
-0.7149658203125,0.1754150390625,0.5223388671875,-50.0640869140625,-90.2862548828125,39.83306884765625
-0.758544921875,0.1148681640625,0.3040771484375,29.78515625,-38.79547119140625,43.40362548828125
-0.8428955078125,0.089599609375,0.237548828125,78.4149169921875,26.7181396484375,41.08428955078125
-0.958984375,0.0826416015625,0.2047119140625,94.44427490234375,60.5926513671875,36.58294677734375
-1.0357666015625,0.0748291015625,0.176513671875,83.24432373046875,60.7452392578125,32.16552734375
-1.098876953125,0.066650390625,0.1273193359375,52.37579345703125,49.18670654296875,28.62548828125
-1.1123046875,0.0560302734375,0.06005859375,11.72637939453125,46.08154296875,23.529052734375
-1.135009765625,0.0535888671875,-0.0062255859375,-28.3203125,52.74200439453125,19.2108154296875
-1.163330078125,0.056396484375,-0.0770263671875,-61.5692138671875,63.385009765625,16.04461669921875
-1.1748046875,0.065185546875,-0.185546875,-83.740234375,76.446533203125,17.1966552734375
-1.2054443359375,0.07373046875,-0.2513427734375,-86.49444580078125,89.66064453125,26.5045166015625
-1.2442626953125,0.075439453125,-0.2601318359375,-72.0367431640625,96.91619873046875,40.90118408203125
-1.2816162109375,0.0838623046875,-0.2691650390625,-49.774169921875,93.57452392578125,53.8330078125
-1.29052734375,0.0772705078125,-0.25048828125,-22.8424072265625,79.4219970703125,62.19482421875
-1.279052734375,0.0635986328125,-0.214111328125,2.044677734375,63.1561279296875,63.41552734375
-1.2518310546875,0.0537109375,-0.169189453125,18.9208984375,51.00250244140625,56.98394775390625
-1.2158203125,0.0457763671875,-0.1378173828125,27.0843505859375,41.3665771484375,46.21124267578125
-1.185791015625,0.0390625,-0.1287841796875,28.0914306640625,33.50067138671875,35.19439697265625
-1.1329345703125,0.0223388671875,-0.1259765625,26.42059326171875,27.25982666015625,23.59771728515625
-1.0501708984375,-0.0018310546875,-0.1220703125,22.42279052734375,21.0723876953125,7.3089599609375
-0.978515625,-0.01220703125,-0.1201171875,17.95196533203125,14.12200927734375,-9.8724365234375
-0.945068359375,-0.0106201171875,-0.122314453125,15.167236328125,0.38909912109375,-21.72088623046875
-0.9229736328125,-0.0081787109375,-0.1190185546875,12.603759765625,-16.91436767578125,-27.923583984375
-0.9190673828125,-0.006591796875,-0.112060546875,8.1634521484375,-36.6363525390625,-33.08868408203125
-0.910400390625,-0.0106201171875,-0.1273193359375,0.63323974609375,-60.06622314453125,-39.52789306640625
-0.9136962890625,-0.0174560546875,-0.1610107421875,-9.3994140625,-74.15771484375,-46.16546630859375
-0.86865234375,-0.023681640625,-0.189697265625,-17.8375244140625,-75.2716064453125,-57.8155517578125
-0.80078125,-0.017822265625,-0.21337890625,-23.0865478515625,-67.138671875,-69.4427490234375
-0.7564697265625,-0.005615234375,-0.2293701171875,-23.06365966796875,-61.04278564453125,-73.3184814453125
-0.7161865234375,0.0068359375,-0.235107421875,-18.91326904296875,-55.2215576171875,-71.22039794921875
-0.6922607421875,0.015869140625,-0.2291259765625,-13.00048828125,-49.96490478515625,-64.0411376953125
-0.685302734375,0.0235595703125,-0.21923828125,-8.23974609375,-45.867919921875,-52.9327392578125
-0.7025146484375,0.0284423828125,-0.2139892578125,-6.50787353515625,-41.6412353515625,-39.43634033203125
-0.7359619140625,0.027587890625,-0.2122802734375,-7.95745849609375,-35.9344482421875,-25.24566650390625
-0.76171875,0.0203857421875,-0.2108154296875,-11.71112060546875,-27.34375,-13.60321044921875
-0.7718505859375,0.0106201171875,-0.2122802734375,-16.41082763671875,-16.7388916015625,-6.20269775390625
-0.775146484375,-0.000732421875,-0.217529296875,-20.39337158203125,-4.99725341796875,-2.23541259765625
-0.7799072265625,-0.0101318359375,-0.2237548828125,-21.881103515625,7.2174072265625,-0.213623046875
-0.7886962890625,-0.0191650390625,-0.2305908203125,-19.59991455078125,18.6614990234375,0.823974609375
-0.7979736328125,-0.0281982421875,-0.2342529296875,-12.97760009765625,28.1829833984375,1.1749267578125
-0.8140869140625,-0.03515625,-0.2313232421875,-2.349853515625,34.6832275390625,0.64849853515625
-0.84033203125,-0.0386962890625,-0.22021484375,10.7269287109375,37.05596923828125,-1.495361328125
-0.8707275390625,-0.038818359375,-0.2041015625,24.05548095703125,34.85107421875,-5.95855712890625
-0.8900146484375,-0.0361328125,-0.18798828125,35.369873046875,28.89251708984375,-12.87841796875
-0.892578125,-0.030517578125,-0.17529296875,43.2281494140625,21.453857421875,-21.46148681640625
-0.882568359375,-0.0234375,-0.16552734375,47.09625244140625,14.9078369140625,-30.17425537109375
-0.8759765625,-0.01025390625,-0.118896484375,46.19598388671875,9.62066650390625,-37.90283203125
-0.8544921875,-0.0052490234375,-0.1712646484375,21.65985107421875,11.97052001953125,-48.59161376953125
-0.8665771484375,0.0048828125,-0.1802978515625,-0.17547607421875,21.18682861328125,-56.00738525390625
-0.8677978515625,0.0045166015625,-0.2269287109375,-22.8424072265625,30.0750732421875,-60.84442138671875
-0.883056640625,-0.0001220703125,-0.2862548828125,-37.7197265625,38.9556884765625,-61.98883056640625
-0.9193115234375,-0.0037841796875,-0.3394775390625,-37.811279296875,47.088623046875,-60.12725830078125
-0.9771728515625,-0.00390625,-0.3780517578125,-19.53887939453125,53.71856689453125,-55.67169189453125
-1.0677490234375,0.0101318359375,-0.381591796875,7.95745849609375,59.16595458984375,-50.59051513671875
-1.1568603515625,0.0184326171875,-0.384521484375,31.28814697265625,67.05474853515625,-45.93658447265625
-1.228759765625,0.0296630859375,-0.341796875,56.121826171875,74.25689697265625,-42.1905517578125
-1.2799072265625,0.0338134765625,-0.3011474609375,70.0836181640625,78.6895751953125,-40.5731201171875
-1.3070068359375,0.03076171875,-0.2667236328125,68.9239501953125,83.6334228515625,-42.266845703125
-1.3155517578125,0.023681640625,-0.2386474609375,59.600830078125,88.26446533203125,-45.8831787109375
-1.3077392578125,0.0172119140625,-0.220458984375,45.95184326171875,92.67425537109375,-52.5970458984375
-1.2972412109375,0.0123291015625,-0.2076416015625,29.54864501953125,97.35870361328125,-59.94415283203125
-1.3072509765625,0.0098876953125,-0.21044921875,12.53509521484375,98.2818603515625,-66.192626953125
-1.3421630859375,0.008056640625,-0.228515625,-3.021240234375,97.198486328125,-72.3114013671875
-1.3585205078125,0.01123046875,-0.2613525390625,-15.05279541015625,100.30364990234375,-78.86505126953125
-1.3642578125,0.012939453125,-0.29638671875,-19.6380615234375,101.81427001953125,-82.25250244140625
-1.258544921875,0.0057373046875,-0.315185546875,-15.6707763671875,102.39410400390625,-82.81707763671875
-1.2105712890625,0.024658203125,-0.4346923828125,-0.69427490234375,101.3031005859375,-69.1070556640625
-1.4505615234375,0.0506591796875,-0.5360107421875,21.97265625,184.6771240234375,-54.62646484375
-1.5509033203125,0.051025390625,-0.6929931640625,133.93402099609375,249.99237060546875,-38.7115478515625
-1.583251953125,0.6336669921875,-0.4229736328125,249.99237060546875,213.03558349609375,0.90789794921875
-1.805908203125,0.9058837890625,0.1949462890625,249.99237060546875,228.0426025390625,13.8397216796875
-1.6771240234375,0.951416015625,1.099853515625,249.99237060546875,242.4163818359375,-1.6632080078125
-1.4854736328125,0.78857421875,1.3953857421875,249.99237060546875,166.38946533203125,-18.85986328125
-1.3201904296875,0.6358642578125,1.4378662109375,249.99237060546875,105.73577880859375,-45.75347900390625
-1.2242431640625,0.5843505859375,1.2947998046875,190.36102294921875,55.03082275390625,-84.81597900390625
-1.178466796875,0.587890625,0.9171142578125,-68.4051513671875,-28.045654296875,-123.83270263671875
-1.19189453125,0.50927734375,0.5458984375,-212.02850341796875,-130.47027587890625,-137.298583984375
-1.1116943359375,0.4124755859375,0.2421875,-250.0,-187.49237060546875,-138.69476318359375
-1.0142822265625,0.32177734375,-0.0023193359375,-250.0,-200.63018798828125,-140.594482421875
-0.87548828125,0.2408447265625,-0.180419921875,-250.0,-180.2215576171875,-139.9078369140625
-0.821533203125,0.1793212890625,-0.3232421875,-250.0,-160.0341796875,-124.27520751953125
-0.8016357421875,0.1243896484375,-0.451416015625,-250.0,-154.13665771484375,-100.2044677734375
-0.800048828125,0.069091796875,-0.5389404296875,-229.2938232421875,-151.7486572265625,-70.04547119140625
-0.7969970703125,0.0272216796875,-0.565185546875,-149.2919921875,-144.40155029296875,-38.6810302734375
-0.7933349609375,0.004638671875,-0.537841796875,-65.948486328125,-136.566162109375,-10.650634765625
-0.8016357421875,-0.00390625,-0.4693603515625,8.73565673828125,-130.0811767578125,14.01519775390625
-0.8294677734375,-0.009033203125,-0.375732421875,64.605712890625,-123.47412109375,34.81292724609375
-0.857177734375,-0.016845703125,-0.2734375,95.28350830078125,-116.0430908203125,48.6907958984375
-0.874267578125,-0.0262451171875,-0.173095703125,99.22027587890625,-109.8785400390625,53.7109375
-0.8677978515625,-0.0341796875,-0.0955810546875,78.07159423828125,-105.3314208984375,49.98016357421875
-0.847900390625,-0.0357666015625,-0.0618896484375,37.5213623046875,-100.48675537109375,40.18402099609375
-0.8228759765625,-0.035400390625,-0.0726318359375,-12.26806640625,-93.60504150390625,27.496337890625
-0.7977294921875,-0.033935546875,-0.1197509765625,-59.99755859375,-85.6475830078125,14.8468017578125
-0.765380859375,-0.033447265625,-0.1937255859375,-95.75653076171875,-77.7130126953125,4.81414794921875
-0.734619140625,-0.036865234375,-0.2755126953125,-112.5640869140625,-70.42694091796875,0.22125244140625
-0.708740234375,-0.043701171875,-0.350830078125,-108.5968017578125,-62.469482421875,1.76239013671875
-0.700439453125,-0.052001953125,-0.4019775390625,-85.968017578125,-53.2073974609375,9.1552734375
-0.70751953125,-0.0592041015625,-0.418701171875,-50.88043212890625,-42.15240478515625,19.8822021484375
-0.733154296875,-0.064208984375,-0.4024658203125,-11.9171142578125,-29.74700927734375,31.45599365234375
-0.771484375,-0.0660400390625,-0.3585205078125,22.46856689453125,-16.59393310546875,41.3970947265625
-0.812744140625,-0.0670166015625,-0.298828125,45.37200927734375,-2.99835205078125,48.40087890625
-0.853271484375,-0.0677490234375,-0.2335205078125,52.98614501953125,10.01739501953125,51.67388916015625
-0.88818359375,-0.0687255859375,-0.17724609375,44.74639892578125,20.9197998046875,51.3153076171875
-0.9071044921875,-0.071044921875,-0.1405029296875,23.20098876953125,28.84674072265625,47.96600341796875
-0.90966796875,-0.0740966796875,-0.1263427734375,-6.49261474609375,34.0118408203125,42.35076904296875
-0.89404296875,-0.076904296875,-0.13818359375,-37.94097900390625,36.26251220703125,35.22491455078125
-0.8726806640625,-0.07958984375,-0.17138671875,-64.64385986328125,36.09466552734375,28.5186767578125
-0.84912109375,-0.081298828125,-0.215576171875,-81.87103271484375,34.8968505859375,23.50616455078125
-0.831298828125,-0.0816650390625,-0.2593994140625,-87.19635009765625,33.721923828125,21.4996337890625
-0.817138671875,-0.0811767578125,-0.291259765625,-81.06231689453125,32.9437255859375,22.66693115234375
-0.813720703125,-0.0802001953125,-0.306396484375,-66.436767578125,31.9671630859375,26.702880859375
-0.8284912109375,-0.0794677734375,-0.308349609375,-47.8057861328125,30.60150146484375,32.72247314453125
-0.8607177734375,-0.077392578125,-0.2947998046875,-30.2276611328125,30.57098388671875,39.6728515625
-0.9049072265625,-0.074951171875,-0.271728515625,-18.02825927734375,32.0281982421875,46.7529296875
-1.0587158203125,-0.4166259765625,-0.1890869140625,-11.16180419921875,30.9295654296875,52.978515625
-1.28515625,-0.8997802734375,-0.1240234375,45.4254150390625,-6.2408447265625,53.680419921875
-1.2362060546875,-0.7489013671875,-0.03857421875,181.90765380859375,-60.29510498046875,53.61175537109375
-1.1292724609375,-0.493408203125,0.1529541015625,249.99237060546875,-93.414306640625,55.04608154296875
-1.078125,-0.3216552734375,0.3577880859375,249.99237060546875,-100.12054443359375,49.41558837890625
-1.049560546875,-0.1943359375,0.4599609375,249.99237060546875,-92.2393798828125,37.91046142578125
-1.061279296875,-0.0892333984375,0.498046875,228.43170166015625,-90.545654296875,35.70556640625
-1.0504150390625,-0.0194091796875,0.5616455078125,179.08477783203125,-87.982177734375,42.73223876953125
-1.095947265625,0.030029296875,0.5626220703125,110.137939453125,-67.16156005859375,50.27008056640625
-1.0994873046875,0.04638671875,0.5565185546875,37.2161865234375,-35.186767578125,53.466796875
-1.1094970703125,0.0579833984375,0.56201171875,-32.1502685546875,-3.631591796875,52.78778076171875
-1.148681640625,0.0286865234375,0.45263671875,-106.88018798828125,17.41790771484375,49.82757568359375
-1.2298583984375,-0.015380859375,0.3873291015625,-129.09698486328125,18.77593994140625,55.19866943359375
-1.27490234375,-0.001708984375,0.3662109375,-134.89532470703125,28.34320068359375,58.61663818359375
-1.306640625,0.0242919921875,0.3251953125,-168.02215576171875,46.0052490234375,56.52618408203125
-1.3292236328125,0.0418701171875,0.25341796875,-227.264404296875,66.13922119140625,51.8341064453125
-1.3541259765625,-0.0244140625,0.16552734375,-250.0,73.333740234375,38.65814208984375
-1.4088134765625,-0.1939697265625,0.119873046875,-250.0,53.06243896484375,14.0838623046875
-1.3548583984375,-0.1810302734375,-0.023681640625,-250.0,18.7835693359375,-18.5089111328125
-1.265380859375,-0.113037109375,-0.18603515625,-250.0,-13.42010498046875,-41.69464111328125
-1.1778564453125,-0.07373046875,-0.305908203125,-250.0,-40.2984619140625,-54.38232421875
-1.1171875,-0.0489501953125,-0.408203125,-241.11175537109375,-64.85748291015625,-58.807373046875
-1.0489501953125,-0.0299072265625,-0.4686279296875,-171.81396484375,-84.442138671875,-55.84716796875
-0.971923828125,-0.013427734375,-0.4630126953125,-96.3897705078125,-93.14727783203125,-46.16546630859375
-0.92431640625,0.0008544921875,-0.4176025390625,-26.885986328125,-96.6033935546875,-31.85272216796875
-0.9051513671875,0.0142822265625,-0.347412109375,26.611328125,-95.23773193359375,-16.9525146484375
-0.899658203125,0.01904296875,-0.258056640625,55.91583251953125,-80.25360107421875,-7.568359375
-0.8887939453125,0.0166015625,-0.16748046875,58.3648681640625,-52.34527587890625,-7.33184814453125
-0.879638671875,0.020751953125,-0.099853515625,38.29193115234375,-22.8424072265625,-14.07623291015625
-0.892822265625,0.0322265625,-0.068359375,4.45556640625,0.83160400390625,-21.43096923828125
-0.9130859375,0.042236328125,-0.0626220703125,-33.97369384765625,17.9901123046875,-25.96282958984375
-0.9130859375,0.04248046875,-0.076416015625,-69.9615478515625,27.74810791015625,-27.89306640625
-0.903076171875,0.0347900390625,-0.1107177734375,-97.7325439453125,28.3203125,-27.6641845703125
-0.8984375,0.0250244140625,-0.1534423828125,-113.10577392578125,21.4691162109375,-27.099609375
-0.8814697265625,0.02001953125,-0.192626953125,-116.3787841796875,12.38250732421875,-28.23638916015625
-0.8468017578125,0.01806640625,-0.2208251953125,-110.1837158203125,4.302978515625,-28.5797119140625
-0.80517578125,0.014892578125,-0.2335205078125,-97.74017333984375,-2.20489501953125,-25.77972412109375
-0.762451171875,0.010986328125,-0.2344970703125,-82.8094482421875,-8.09478759765625,-20.5230712890625
-0.7342529296875,0.0076904296875,-0.2327880859375,-69.11468505859375,-12.0849609375,-13.75579833984375
-0.72216796875,0.0064697265625,-0.226806640625,-58.95233154296875,-11.0626220703125,-6.9427490234375
-0.7183837890625,0.005126953125,-0.2149658203125,-53.55072021484375,-4.79888916015625,-0.78582763671875
-0.732666015625,0.0032958984375,-0.200927734375,-53.5430908203125,5.02777099609375,4.638671875
-0.7427978515625,0.00048828125,-0.1944580078125,-58.54034423828125,18.00537109375,7.3394775390625
-0.7586669921875,0.00341796875,-0.1949462890625,-66.15447998046875,32.56988525390625,10.32257080078125
-0.786376953125,0.0029296875,-0.198974609375,-71.8231201171875,41.92352294921875,15.716552734375
-0.812744140625,-0.0030517578125,-0.200439453125,-74.44000244140625,45.49407958984375,22.491455078125
-0.8365478515625,-0.0126953125,-0.2076416015625,-74.42474365234375,44.189453125,28.564453125
-0.855224609375,-0.0213623046875,-0.2210693359375,-71.0906982421875,39.48211669921875,31.59332275390625
-0.8746337890625,-0.0277099609375,-0.2314453125,-64.47601318359375,34.85107421875,32.27996826171875
-0.8997802734375,-0.030517578125,-0.2392578125,-55.65643310546875,30.67779541015625,31.07452392578125
-0.9010009765625,-0.03173828125,-0.244384765625,-46.1273193359375,26.22222900390625,28.66363525390625
-0.865966796875,-0.033203125,-0.2523193359375,-36.6058349609375,25.74920654296875,27.53448486328125
-0.853271484375,-0.0379638671875,-0.2491455078125,-25.604248046875,26.60369873046875,29.85382080078125
-0.861572265625,-0.052734375,-0.2237548828125,-18.60809326171875,26.72576904296875,31.56280517578125
-0.8480224609375,-0.0562744140625,-0.2354736328125,-33.5845947265625,32.470703125,27.30560302734375
-0.7894287109375,-0.125244140625,-0.3897705078125,-43.5638427734375,40.008544921875,22.05657958984375
-0.842529296875,-0.1175537109375,-0.375732421875,-36.62872314453125,43.6248779296875,21.42333984375
-0.8905029296875,-0.09912109375,-0.358642578125,-24.8870849609375,51.67388916015625,19.622802734375
-0.9268798828125,-0.0804443359375,-0.330078125,-15.48004150390625,58.53271484375,18.21136474609375
-0.97119140625,-0.0662841796875,-0.30224609375,-4.6234130859375,58.78448486328125,18.97430419921875
-1.0283203125,-0.052978515625,-0.2847900390625,4.11224365234375,55.42755126953125,21.17156982421875
-1.0841064453125,-0.0391845703125,-0.2713623046875,9.89532470703125,52.20794677734375,24.72686767578125
-1.1182861328125,-0.03125,-0.2540283203125,13.19122314453125,47.88970947265625,28.86962890625
-1.148193359375,-0.0272216796875,-0.2435302734375,13.5040283203125,42.83905029296875,33.5693359375
-1.1539306640625,-0.03076171875,-0.231201171875,11.20758056640625,38.41400146484375,36.6668701171875
-1.1290283203125,-0.041259765625,-0.2210693359375,6.439208984375,35.72845458984375,36.19384765625
-1.103271484375,-0.0516357421875,-0.2115478515625,-0.6103515625,36.17095947265625,32.14263916015625
-1.0794677734375,-0.0587158203125,-0.2073974609375,-9.91058349609375,40.51971435546875,25.18463134765625
-1.095947265625,-0.054443359375,-0.2108154296875,-20.172119140625,46.93603515625,17.95196533203125
-1.143310546875,-0.04541015625,-0.2225341796875,-30.03692626953125,52.79541015625,14.09149169921875
-1.1722412109375,-0.040771484375,-0.228271484375,-37.80364990234375,56.884765625,11.932373046875
-1.188232421875,-0.0433349609375,-0.2318115234375,-43.00689697265625,56.43463134765625,9.68170166015625
-1.192138671875,-0.0428466796875,-0.241455078125,-46.79107666015625,53.64990234375,7.68280029296875
-1.0992431640625,-0.037841796875,-0.314697265625,-47.47772216796875,49.33929443359375,13.48876953125
-1.3135986328125,-0.023681640625,-0.387939453125,-42.28973388671875,84.15985107421875,29.27398681640625
-1.383544921875,0.0120849609375,-0.3160400390625,-34.46197509765625,176.08642578125,26.46636962890625
-1.5250244140625,0.1590576171875,0.2442626953125,66.2994384765625,132.9803466796875,38.3453369140625
-1.4068603515625,0.30224609375,0.5623779296875,238.8763427734375,-44.30389404296875,47.40142822265625
-1.113037109375,0.37890625,1.0048828125,249.99237060546875,-130.2032470703125,53.93218994140625
-1.248046875,0.3448486328125,1.304931640625,249.99237060546875,-99.2584228515625,62.92724609375
-1.2984619140625,0.3333740234375,1.31396484375,189.50653076171875,-62.79754638671875,49.4384765625
-1.3900146484375,0.3282470703125,1.07958984375,24.1546630859375,-29.1748046875,24.7802734375
-1.4046630859375,0.334228515625,0.8133544921875,-148.41461181640625,-21.11053466796875,-7.26318359375
-1.3702392578125,0.3316650390625,0.494384765625,-250.0,-39.8101806640625,-38.38348388671875
-1.3033447265625,0.30517578125,0.1519775390625,-250.0,-64.5751953125,-66.04766845703125
-1.2130126953125,0.2529296875,-0.1533203125,-250.0,-81.52008056640625,-86.24267578125
-1.1229248046875,0.18994140625,-0.3988037109375,-250.0,-90.667724609375,-94.39849853515625
-1.0277099609375,0.1304931640625,-0.56640625,-250.0,-93.902587890625,-88.5467529296875
-0.9561767578125,0.0904541015625,-0.6552734375,-250.0,-93.0023193359375,-69.610595703125
-0.9112548828125,0.066650390625,-0.665771484375,-156.65435791015625,-90.087890625,-41.7327880859375
-0.92041015625,0.0634765625,-0.5992431640625,-40.87066650390625,-87.6922607421875,-10.284423828125
-0.9315185546875,0.057373046875,-0.4781494140625,56.69403076171875,-86.5325927734375,19.37103271484375
-0.9619140625,0.0516357421875,-0.3424072265625,121.9482421875,-85.906982421875,42.28973388671875
-0.9954833984375,0.03564453125,-0.2049560546875,149.3072509765625,-81.23779296875,56.51092529296875
-1.0118408203125,0.019775390625,-0.0677490234375,139.1448974609375,-73.44818115234375,60.60791015625
-1.029296875,0.00830078125,0.0283203125,95.51239013671875,-68.39752197265625,55.32073974609375
-1.0263671875,0.003662109375,0.0794677734375,28.54156494140625,-67.4591064453125,42.25921630859375
-1.017333984375,0.0115966796875,0.06982421875,-49.774169921875,-69.06890869140625,23.4832763671875
-0.9979248046875,0.021240234375,0.0076904296875,-125.244140625,-73.455810546875,3.6773681640625
-0.977783203125,0.023193359375,-0.091064453125,-184.7686767578125,-80.6884765625,-12.53509521484375
-0.958251953125,0.01806640625,-0.2044677734375,-219.24591064453125,-89.7216796875,-24.46746826171875
-0.9462890625,0.006103515625,-0.3118896484375,-225.799560546875,-98.04534912109375,-31.88323974609375
-0.9404296875,-0.0054931640625,-0.3905029296875,-206.41326904296875,-104.89654541015625,-34.1796875
-0.9346923828125,-0.0152587890625,-0.42822265625,-168.15185546875,-109.76409912109375,-32.4554443359375
-0.9234619140625,-0.0203857421875,-0.4259033203125,-121.0479736328125,-113.01422119140625,-28.16009521484375
-0.915771484375,-0.021240234375,-0.3951416015625,-74.95880126953125,-116.3330078125,-22.0947265625
-0.915771484375,-0.01953125,-0.3436279296875,-38.21563720703125,-118.30902099609375,-16.13616943359375
-0.9185791015625,-0.016845703125,-0.2769775390625,-17.3492431640625,-115.45562744140625,-11.87896728515625
-0.9176025390625,-0.01318359375,-0.2127685546875,-15.43426513671875,-108.17718505859375,-9.97161865234375
-0.9129638671875,0.004150390625,-0.179931640625,-32.38677978515625,-100.0518798828125,-10.38360595703125
-0.8966064453125,0.0133056640625,-0.1973876953125,-68.84765625,-87.9058837890625,-13.427734375
-0.8873291015625,0.01123046875,-0.1959228515625,-106.69708251953125,-71.51031494140625,-16.92962646484375
-0.8709716796875,0.0086669921875,-0.214599609375,-139.32037353515625,-56.87713623046875,-21.41571044921875
-0.85107421875,0.0052490234375,-0.2491455078125,-161.88812255859375,-45.55511474609375,-25.0244140625
-0.8375244140625,-0.0001220703125,-0.289306640625,-171.22650146484375,-36.7584228515625,-26.51214599609375
-0.827880859375,-0.005126953125,-0.32568359375,-166.80145263671875,-29.571533203125,-26.2451171875
-0.8199462890625,-0.0091552734375,-0.3460693359375,-150.85601806640625,-23.37646484375,-23.6053466796875
-0.812255859375,-0.0107421875,-0.34423828125,-127.655029296875,-19.14215087890625,-18.65386962890625
-0.8009033203125,-0.009033203125,-0.32080078125,-103.179931640625,-16.70074462890625,-11.9781494140625
-0.8026123046875,-0.0064697265625,-0.285888671875,-83.86993408203125,-14.0533447265625,-4.57763671875
-0.8079833984375,-0.0032958984375,-0.2445068359375,-73.7152099609375,-10.1470947265625,1.70135498046875
-0.829833984375,0.0008544921875,-0.20947265625,-74.4171142578125,-6.29425048828125,7.22503662109375
-0.85498046875,0.0076904296875,-0.1859130859375,-85.53314208984375,-1.41143798828125,12.2528076171875
-0.895263671875,0.0128173828125,-0.1766357421875,-104.80499267578125,4.913330078125,18.15032958984375
-0.93505859375,0.0150146484375,-0.1837158203125,-128.70025634765625,12.09259033203125,23.8494873046875
-0.9718017578125,0.013427734375,-0.205810546875,-152.58026123046875,19.5465087890625,30.90667724609375
-1.010498046875,0.0062255859375,-0.2440185546875,-171.32568359375,24.749755859375,38.96331787109375
-1.034912109375,-0.00537109375,-0.280517578125,-181.0150146484375,28.99169921875,46.722412109375
-1.059326171875,-0.0196533203125,-0.315673828125,-180.88531494140625,31.89849853515625,53.67279052734375
-1.0672607421875,-0.030517578125,-0.331298828125,-171.71478271484375,33.16497802734375,59.71527099609375
-1.077392578125,-0.0364990234375,-0.3338623046875,-156.94427490234375,32.89794921875,65.46783447265625
-1.097412109375,-0.0367431640625,-0.324951171875,-140.52581787109375,31.37969970703125,70.73974609375
-1.1181640625,-0.033447265625,-0.3067626953125,-126.0833740234375,29.23583984375,76.53045654296875
-1.129150390625,-0.0279541015625,-0.2811279296875,-116.46270751953125,27.83966064453125,82.275390625
-1.1231689453125,-0.023193359375,-0.2525634765625,-112.54119873046875,25.15411376953125,86.7767333984375
-1.109130859375,-0.0208740234375,-0.22314453125,-114.23492431640625,21.1029052734375,89.41650390625
-1.0828857421875,-0.020263671875,-0.1968994140625,-121.46759033203125,17.1661376953125,89.569091796875
-1.04541015625,-0.0208740234375,-0.17724609375,-132.85064697265625,12.00103759765625,87.158203125
-1.0030517578125,-0.0203857421875,-0.169921875,-146.4080810546875,5.2490234375,82.57293701171875
-0.9571533203125,-0.0194091796875,-0.1708984375,-160.24017333984375,-1.068115234375,77.03399658203125
-0.906494140625,-0.0186767578125,-0.17626953125,-172.454833984375,-6.3323974609375,71.624755859375
-0.8695068359375,-0.017578125,-0.187255859375,-182.07550048828125,-10.7574462890625,67.26837158203125
-0.846435546875,-0.01513671875,-0.2017822265625,-188.6444091796875,-13.71002197265625,64.5751953125
-0.8472900390625,-0.0098876953125,-0.2142333984375,-192.14630126953125,-14.86968994140625,64.453125
-0.8690185546875,-0.00390625,-0.229248046875,-192.93975830078125,-15.90728759765625,67.11578369140625
-0.8973388671875,0.0035400390625,-0.23779296875,-191.38336181640625,-14.62554931640625,71.96044921875
-0.93798828125,0.007568359375,-0.2392578125,-188.3087158203125,-11.5966796875,79.62799072265625
-0.9970703125,0.010986328125,-0.2388916015625,-184.3719482421875,-9.796142578125,88.0584716796875
-1.059326171875,0.01171875,-0.25048828125,-182.74688720703125,-10.16998291015625,94.96307373046875
-1.116455078125,0.009033203125,-0.250732421875,-185.75286865234375,-8.758544921875,97.71728515625
-1.1763916015625,0.00634765625,-0.2607421875,-190.78826904296875,-9.42230224609375,95.76416015625
-1.2052001953125,0.006103515625,-0.2742919921875,-198.18115234375,-9.36126708984375,88.592529296875
-1.2000732421875,0.005126953125,-0.2908935546875,-203.57513427734375,-9.69696044921875,78.43780517578125
-1.16943359375,0.000732421875,-0.3040771484375,-203.81927490234375,-9.16290283203125,67.1844482421875
-1.1185302734375,-0.0068359375,-0.313232421875,-196.685791015625,-7.7972412109375,56.63299560546875
-1.064453125,-0.0147705078125,-0.3135986328125,-181.80084228515625,-5.04302978515625,48.3245849609375
-1.0313720703125,-0.0205078125,-0.306396484375,-160.98785400390625,-1.86920166015625,42.236328125
-1.0208740234375,-0.0213623046875,-0.2899169921875,-137.56561279296875,2.0599365234375,36.56005859375
-1.0125732421875,-0.0186767578125,-0.2646484375,-115.16571044921875,7.13348388671875,29.8919677734375
-0.9940185546875,-0.0145263671875,-0.2320556640625,-97.198486328125,13.40484619140625,22.552490234375
-0.9718017578125,-0.008544921875,-0.202880859375,-86.17401123046875,20.04241943359375,15.4266357421875
-0.9468994140625,-0.0020751953125,-0.1702880859375,-83.22906494140625,27.25982666015625,8.61358642578125
-0.92236328125,0.0048828125,-0.1453857421875,-86.7919921875,35.064697265625,2.777099609375
-0.8963623046875,0.010986328125,-0.1285400390625,-95.4437255859375,43.46466064453125,-2.1514892578125
-0.881103515625,0.0169677734375,-0.120361328125,-106.9183349609375,51.65863037109375,-5.68389892578125
-0.8746337890625,0.021240234375,-0.1220703125,-118.96514892578125,58.9141845703125,-8.056640625
-0.8753662109375,0.0247802734375,-0.1307373046875,-129.57763671875,65.5975341796875,-9.368896484375
-0.889404296875,0.0252685546875,-0.1439208984375,-137.0849609375,70.88470458984375,-9.30023193359375
-0.9061279296875,0.0234375,-0.1666259765625,-141.51763916015625,75.5615234375,-8.75091552734375
-0.9229736328125,0.0206298828125,-0.1893310546875,-142.4713134765625,79.73480224609375,-8.1939697265625
-0.94921875,0.0191650390625,-0.2076416015625,-139.5263671875,82.49664306640625,-6.93511962890625
-0.9693603515625,0.0147705078125,-0.2242431640625,-133.50677490234375,85.12115478515625,-5.36346435546875
-0.998779296875,0.0123291015625,-0.2330322265625,-124.481201171875,86.66229248046875,-3.76129150390625
-1.0233154296875,0.012451171875,-0.2340087890625,-114.1204833984375,88.32550048828125,-3.18145751953125
-1.04541015625,0.012451171875,-0.2301025390625,-103.94287109375,89.66064453125,-2.1514892578125
-1.06103515625,0.0115966796875,-0.2210693359375,-94.54345703125,90.4083251953125,-1.06048583984375
-1.0714111328125,0.01025390625,-0.209228515625,-86.7767333984375,91.00341796875,-0.66375732421875
-1.07470703125,0.0091552734375,-0.1961669921875,-81.29119873046875,90.70587158203125,-0.946044921875
-1.0687255859375,0.0078125,-0.18798828125,-78.1707763671875,89.7216796875,-1.89971923828125
-0.9644775390625,0.01123046875,-0.1611328125,-77.5909423828125,89.0655517578125,-1.70135498046875
-0.9974365234375,0.0076904296875,-0.166015625,-80.169677734375,90.1947021484375,6.4849853515625
-1.0067138671875,-0.00146484375,-0.15380859375,-87.15057373046875,106.6131591796875,11.41357421875
-1.027587890625,-0.0125732421875,-0.1544189453125,-96.0845947265625,121.39129638671875,13.5345458984375
-1.044189453125,-0.025390625,-0.1632080078125,-103.75213623046875,130.51605224609375,12.9547119140625
-1.0467529296875,-0.0406494140625,-0.183349609375,-107.97882080078125,134.0484619140625,9.307861328125
-1.0623779296875,-0.1715087890625,-0.160888671875,-94.7265625,117.74444580078125,7.01141357421875
-1.251953125,-0.232177734375,0.0213623046875,-14.8468017578125,31.9671630859375,16.11328125
-1.19287109375,-0.1590576171875,0.0968017578125,67.98553466796875,-32.96661376953125,13.78631591796875
-1.02685546875,-0.0645751953125,0.2000732421875,130.24139404296875,-44.54803466796875,3.53240966796875
-0.9837646484375,0.006591796875,0.3739013671875,150.91705322265625,-10.87188720703125,-6.90460205078125
-1.05419921875,0.0445556640625,0.472900390625,131.622314453125,26.28326416015625,-15.55633544921875
-1.11083984375,0.058349609375,0.4981689453125,80.474853515625,50.34637451171875,-27.25982666015625
-1.1163330078125,0.06689453125,0.4461669921875,1.5869140625,62.91961669921875,-44.219970703125
-1.1080322265625,0.084228515625,0.3477783203125,-88.56964111328125,63.83514404296875,-63.20953369140625
-1.09375,0.095703125,0.1943359375,-162.49847412109375,50.68206787109375,-79.88739013671875
-1.078857421875,0.0877685546875,0.032958984375,-198.52447509765625,29.62493896484375,-91.00341796875
-1.0562744140625,0.0704345703125,-0.10986328125,-206.53533935546875,10.94818115234375,-97.06878662109375
-1.0341796875,0.0518798828125,-0.222412109375,-193.71795654296875,-2.54058837890625,-99.11346435546875
-1.01220703125,0.037353515625,-0.301025390625,-163.4979248046875,-12.3291015625,-98.20556640625
-1.00146484375,0.030029296875,-0.3438720703125,-122.21527099609375,-18.341064453125,-94.7113037109375
-0.99755859375,0.0277099609375,-0.348876953125,-77.69012451171875,-20.01953125,-89.11895751953125
-0.99658203125,0.030029296875,-0.3172607421875,-37.872314453125,-18.8751220703125,-83.1298828125
-0.9959716796875,0.031982421875,-0.2999267578125,-10.833740234375,-17.5018310546875,-78.26995849609375
-1.0006103515625,0.0361328125,-0.25146484375,-6.072998046875,-12.3443603515625,-75.6072998046875
-1.0355224609375,0.040771484375,-0.21484375,-13.3514404296875,-5.706787109375,-72.6470947265625
-1.082275390625,0.04541015625,-0.198486328125,-28.80096435546875,0.274658203125,-69.64874267578125
-1.1279296875,0.044677734375,-0.199462890625,-48.1719970703125,4.11224365234375,-67.05474853515625
-1.1640625,0.0408935546875,-0.2188720703125,-67.169189453125,7.6446533203125,-66.10870361328125
-1.1842041015625,0.032958984375,-0.251953125,-81.01654052734375,10.31494140625,-67.11578369140625
-1.2073974609375,0.0264892578125,-0.2933349609375,-86.1358642578125,12.93182373046875,-68.05419921875
-1.2359619140625,0.01611328125,-0.3248291015625,-80.9783935546875,15.5181884765625,-66.91741943359375
-1.2611083984375,0.0074462890625,-0.3409423828125,-66.925048828125,15.7012939453125,-67.13104248046875
-1.27783203125,0.006103515625,-0.3477783203125,-47.05047607421875,10.96343994140625,-70.3582763671875
-1.2718505859375,0.0091552734375,-0.349853515625,-28.106689453125,3.21197509765625,-76.16424560546875
-1.2530517578125,0.0172119140625,-0.3323974609375,-12.53509521484375,-3.9520263671875,-81.71844482421875
-1.2142333984375,0.0255126953125,-0.2999267578125,-0.25177001953125,-10.5438232421875,-86.08245849609375
-1.1805419921875,0.032470703125,-0.2633056640625,5.33294677734375,-17.63916015625,-88.73748779296875
-1.152587890625,0.03662109375,-0.236572265625,2.06756591796875,-21.46148681640625,-91.01104736328125
-1.1217041015625,0.04052734375,-0.2161865234375,-7.75909423828125,-23.23150634765625,-93.60504150390625
-1.09130859375,0.0439453125,-0.2113037109375,-21.636962890625,-26.1383056640625,-95.703125
-1.05859375,0.04345703125,-0.2252197265625,-36.0870361328125,-28.84674072265625,-95.947265625
-1.006103515625,0.03955078125,-0.2418212890625,-46.93603515625,-31.18133544921875,-94.82574462890625
-0.9376220703125,0.0335693359375,-0.254638671875,-52.60467529296875,-32.012939453125,-92.2088623046875
-0.8619384765625,0.026123046875,-0.2708740234375,-53.06243896484375,-34.72137451171875,-87.1124267578125
-0.8004150390625,0.021728515625,-0.283203125,-48.52294921875,-40.130615234375,-79.4525146484375
-0.76123046875,0.0194091796875,-0.294189453125,-38.4674072265625,-47.1343994140625,-69.2901611328125
-0.73974609375,0.0164794921875,-0.2982177734375,-25.35247802734375,-53.070068359375,-58.04443359375
-0.7220458984375,0.015380859375,-0.2862548828125,-11.7950439453125,-56.09130859375,-46.95892333984375
-0.7025146484375,0.0155029296875,-0.2647705078125,-0.91552734375,-57.647705078125,-36.3311767578125
-0.6865234375,0.0140380859375,-0.2421875,5.21087646484375,-59.05914306640625,-25.4669189453125
-0.672119140625,0.014404296875,-0.2166748046875,6.30950927734375,-60.95123291015625,-14.51873779296875
-0.671142578125,0.012451171875,-0.20166015625,1.77764892578125,-61.920166015625,-2.89154052734375
-0.70166015625,0.00634765625,-0.2003173828125,-6.95037841796875,-62.07275390625,9.94873046875
-0.738037109375,0.0006103515625,-0.2064208984375,-17.669677734375,-61.62261962890625,21.8353271484375
-0.7794189453125,-0.003662109375,-0.2208251953125,-27.8472900390625,-61.5081787109375,33.1268310546875
-0.8223876953125,-0.00927734375,-0.2384033203125,-35.49957275390625,-61.65313720703125,44.86846923828125
-0.8641357421875,-0.0174560546875,-0.25537109375,-40.0390625,-62.68310546875,56.11419677734375
-0.9053955078125,-0.0244140625,-0.2679443359375,-41.5496826171875,-64.666748046875,65.78826904296875
-0.943115234375,-0.0313720703125,-0.2799072265625,-41.0614013671875,-67.83294677734375,73.92120361328125
-0.9747314453125,-0.038330078125,-0.2862548828125,-39.031982421875,-71.38824462890625,80.7952880859375
-0.9996337890625,-0.043212890625,-0.283935546875,-35.53009033203125,-75.592041015625,86.1663818359375
-1.017578125,-0.0489501953125,-0.2724609375,-32.5927734375,-80.45196533203125,90.2099609375
-1.027099609375,-0.053466796875,-0.26123046875,-31.6314697265625,-85.27374267578125,92.32330322265625
-1.0303955078125,-0.0560302734375,-0.249267578125,-33.8134765625,-89.28680419921875,92.33856201171875
-1.0233154296875,-0.055419921875,-0.24462890625,-38.96331787109375,-92.33856201171875,91.22467041015625
-1.0101318359375,-0.05517578125,-0.244384765625,-45.95947265625,-94.59686279296875,90.2252197265625
-0.9940185546875,-0.0540771484375,-0.2486572265625,-53.497314453125,-95.306396484375,89.40887451171875
-0.9794921875,-0.052734375,-0.2569580078125,-60.66131591796875,-94.04754638671875,88.6383056640625
-0.967041015625,-0.051513671875,-0.2657470703125,-66.6351318359375,-91.78924560546875,88.2720947265625
-0.95458984375,-0.0516357421875,-0.2803955078125,-70.61767578125,-89.28680419921875,88.6993408203125
-0.94677734375,-0.0533447265625,-0.2979736328125,-71.35009765625,-86.90643310546875,89.79034423828125
-0.935302734375,-0.0556640625,-0.31298828125,-69.32830810546875,-81.48956298828125,90.49224853515625
-0.9295654296875,-0.0596923828125,-0.3236083984375,-64.78118896484375,-73.5015869140625,90.95001220703125
-0.926025390625,-0.061279296875,-0.3277587890625,-58.10546875,-64.23187255859375,91.01104736328125
-0.9356689453125,-0.0634765625,-0.3299560546875,-50.45318603515625,-53.16162109375,91.644287109375
-0.94970703125,-0.0618896484375,-0.3118896484375,-42.4041748046875,-40.4052734375,90.9576416015625
-0.9552001953125,-0.059814453125,-0.2838134765625,-36.56005859375,-30.54046630859375,89.2791748046875
-0.9501953125,-0.0595703125,-0.2669677734375,-33.95843505859375,-26.6571044921875,87.13531494140625
-0.9462890625,-0.0609130859375,-0.2620849609375,-34.03472900390625,-24.1241455078125,85.07537841796875
-0.9351806640625,-0.0645751953125,-0.2628173828125,-36.14044189453125,-18.16558837890625,82.6873779296875
-0.934326171875,-0.069091796875,-0.263427734375,-39.22271728515625,-8.68988037109375,80.1544189453125
-0.9381103515625,-0.0709228515625,-0.2578125,-42.51861572265625,3.387451171875,76.385498046875
-0.939453125,-0.06884765625,-0.251953125,-45.135498046875,12.01629638671875,71.7926025390625
-0.9429931640625,-0.06689453125,-0.2506103515625,-46.13494873046875,13.92364501953125,68.1304931640625
-0.937255859375,-0.064208984375,-0.2581787109375,-45.654296875,12.51983642578125,65.2008056640625
-0.92919921875,-0.0628662109375,-0.2667236328125,-43.701171875,12.30621337890625,62.93487548828125
-0.9263916015625,-0.060791015625,-0.27392578125,-40.64178466796875,15.11383056640625,61.1114501953125
-0.9307861328125,-0.058349609375,-0.275390625,-36.9415283203125,20.782470703125,59.60845947265625
-0.93505859375,-0.0579833984375,-0.2698974609375,-33.447265625,28.4423828125,58.29620361328125
-0.93701171875,-0.058837890625,-0.258544921875,-30.8380126953125,36.27777099609375,56.40411376953125
-0.943115234375,-0.0592041015625,-0.248046875,-29.296875,42.68646240234375,53.59649658203125
-0.9547119140625,-0.0584716796875,-0.24267578125,-28.57208251953125,47.47772216796875,50.17852783203125
-0.9654541015625,-0.056884765625,-0.2406005859375,-28.38134765625,51.06353759765625,46.0662841796875
-0.975341796875,-0.0546875,-0.23779296875,-28.57208251953125,53.924560546875,41.67938232421875
-0.985107421875,-0.050537109375,-0.2337646484375,-29.2816162109375,56.2591552734375,37.4603271484375
-1.0006103515625,-0.043701171875,-0.2318115234375,-30.86090087890625,57.8155517578125,33.99658203125
-1.0250244140625,-0.0379638671875,-0.2314453125,-33.45489501953125,58.60137939453125,32.012939453125
-1.047607421875,-0.032470703125,-0.2344970703125,-37.1246337890625,58.81500244140625,30.66253662109375
-1.0618896484375,-0.0340576171875,-0.2359619140625,-41.05377197265625,57.59429931640625,28.7933349609375
-1.0733642578125,-0.02978515625,-0.2451171875,-45.166015625,57.55615234375,27.2216796875
-1.1072998046875,-0.0267333984375,-0.2581787109375,-48.0499267578125,55.93109130859375,27.1453857421875
-1.126708984375,-0.0238037109375,-0.2613525390625,-50.445556640625,55.68695068359375,27.4200439453125
-1.323974609375,0.4044189453125,1.0726318359375,-72.60894775390625,34.58404541015625,27.27508544921875
-1.4075927734375,0.6141357421875,1.122802734375,-232.11669921875,-48.45428466796875,22.5982666015625
-1.2900390625,0.5250244140625,0.388427734375,-250.0,-88.592529296875,17.059326171875
-1.36279296875,0.28759765625,0.22119140625,-250.0,-86.69281005859375,17.92144775390625
-1.47998046875,0.1434326171875,0.322265625,-250.0,-108.82568359375,16.27349853515625
-1.5081787109375,-0.026611328125,0.885986328125,-250.0,-164.19219970703125,16.42608642578125
-1.30615234375,-0.0545654296875,0.8377685546875,-250.0,-182.12127685546875,7.17926025390625
-0.9267578125,-0.01904296875,0.15966796875,-250.0,-117.22564697265625,-11.7034912109375
-0.718017578125,-0.033447265625,-0.387939453125,-250.0,-50.13275146484375,-10.2691650390625
-0.714599609375,-0.0257568359375,-0.656494140625,-238.34991455078125,8.72039794921875,12.51220703125
-0.8275146484375,0.0128173828125,-0.7841796875,-72.509765625,44.92950439453125,45.5322265625
-0.998046875,0.07470703125,-0.7735595703125,97.95379638671875,70.22857666015625,74.86724853515625
-1.1126708984375,0.1357421875,-0.6524658203125,249.99237060546875,91.45355224609375,91.949462890625
-1.21875,0.190185546875,-0.4464111328125,249.99237060546875,103.2867431640625,101.7608642578125
-1.323974609375,0.20263671875,-0.2154541015625,249.99237060546875,87.57781982421875,97.83172607421875
-1.402587890625,0.177001953125,-0.07861328125,249.99237060546875,65.460205078125,76.59149169921875
-1.4222412109375,0.1502685546875,0.0283203125,249.99237060546875,53.13873291015625,44.54803466796875
-1.3897705078125,0.1309814453125,0.110107421875,249.99237060546875,57.2967529296875,6.55364990234375
-1.3131103515625,0.1243896484375,0.153076171875,181.34307861328125,70.68634033203125,-30.76934814453125
-1.211181640625,0.12109375,0.1456298828125,71.02203369140625,84.747314453125,-61.1114501953125
-1.1099853515625,0.1148681640625,0.085693359375,-32.5775146484375,96.16851806640625,-83.12225341796875
-1.0150146484375,0.0992431640625,-0.0107421875,-116.55426025390625,104.30145263671875,-97.3968505859375
-0.944580078125,0.0701904296875,-0.115234375,-172.42431640625,110.04638671875,-105.11016845703125
-0.8519287109375,0.0406494140625,-0.2257080078125,-197.4945068359375,113.63983154296875,-110.03875732421875
-0.7724609375,0.01416015625,-0.3155517578125,-190.9942626953125,115.6463623046875,-109.10797119140625
-0.73193359375,-0.005126953125,-0.3736572265625,-156.45599365234375,110.60333251953125,-101.49383544921875
-0.6981201171875,-0.015625,-0.396728515625,-103.44696044921875,101.01318359375,-91.63665771484375
-0.678955078125,-0.01708984375,-0.377685546875,-42.5262451171875,88.14239501953125,-80.3375244140625
-0.669921875,-0.01171875,-0.325439453125,14.99176025390625,72.27325439453125,-69.03839111328125
-0.6654052734375,-0.0048828125,-0.2552490234375,59.38720703125,54.90875244140625,-58.6090087890625
-0.66650390625,0.000244140625,-0.17724609375,84.80072021484375,37.34588623046875,-49.9420166015625
-0.666748046875,0.002197265625,-0.108154296875,88.897705078125,20.7366943359375,-43.37310791015625
-0.67236328125,0.002197265625,-0.0611572265625,73.52447509765625,6.08062744140625,-38.3148193359375
-0.6827392578125,0.0018310546875,-0.0426025390625,43.57147216796875,-5.62286376953125,-34.56878662109375
-0.6961669921875,0.0008544921875,-0.0565185546875,6.3323974609375,-14.51873779296875,-31.2957763671875
-0.7159423828125,-0.0032958984375,-0.0970458984375,-29.4036865234375,-22.27020263671875,-27.54974365234375
-0.7381591796875,-0.010986328125,-0.1531982421875,-56.396484375,-29.327392578125,-23.25439453125
-0.7593994140625,-0.0203857421875,-0.2135009765625,-69.9462890625,-36.43798828125,-18.00537109375
-0.7884521484375,-0.02978515625,-0.26953125,-68.115234375,-45.22705078125,-11.02447509765625
-0.8212890625,-0.036865234375,-0.3099365234375,-52.2308349609375,-55.48858642578125,-2.7618408203125
-0.8565673828125,-0.0423583984375,-0.3292236328125,-26.35955810546875,-67.25311279296875,5.79071044921875
-0.88427734375,-0.04541015625,-0.3240966796875,3.45611572265625,-79.21600341796875,13.00811767578125
-0.908203125,-0.047119140625,-0.3013916015625,31.25762939453125,-90.96527099609375,17.55523681640625
-0.9290771484375,-0.0460205078125,-0.2725830078125,52.1087646484375,-101.50146484375,19.134521484375
-0.947021484375,-0.0438232421875,-0.2425537109375,63.10272216796875,-108.5052490234375,18.1121826171875
-0.951416015625,-0.040771484375,-0.21435546875,63.568115234375,-110.80169677734375,14.21356201171875
-0.9578857421875,-0.0384521484375,-0.1971435546875,54.58831787109375,-108.856201171875,7.7667236328125
-0.955322265625,-0.0372314453125,-0.19775390625,38.787841796875,-101.2420654296875,0.457763671875
-0.9493408203125,-0.036865234375,-0.2064208984375,21.30889892578125,-90.6982421875,-8.26263427734375
-0.955322265625,-0.034423828125,-0.2315673828125,4.7760009765625,-75.56915283203125,-16.25823974609375
-0.9730224609375,-0.03125,-0.2646484375,-6.6375732421875,-57.098388671875,-22.6287841796875
-0.989501953125,-0.0296630859375,-0.2938232421875,-10.9100341796875,-36.27777099609375,-27.25982666015625
-0.9976806640625,-0.0322265625,-0.322021484375,-7.598876953125,-15.0299072265625,-29.38079833984375
-1.027587890625,-0.0323486328125,-0.3414306640625,3.7384033203125,3.9520263671875,-29.5257568359375
-1.0582275390625,-0.0333251953125,-0.3536376953125,20.7672119140625,22.857666015625,-29.62493896484375
-1.0980224609375,-0.028564453125,-0.3516845703125,41.3055419921875,41.66412353515625,-30.20477294921875
-1.139404296875,-0.01904296875,-0.3345947265625,62.5457763671875,58.69293212890625,-31.5399169921875
-1.1710205078125,-0.00634765625,-0.3018798828125,81.18438720703125,70.770263671875,-32.32574462890625
-1.1773681640625,0.0010986328125,-0.257568359375,94.00177001953125,77.26287841796875,-33.40911865234375
-1.174560546875,0.0054931640625,-0.2152099609375,98.36578369140625,78.74298095703125,-36.24725341796875
-1.20166015625,0.0137939453125,-0.1922607421875,93.17779541015625,77.4688720703125,-39.24560546875
-1.2547607421875,0.024658203125,-0.19091796875,80.1239013671875,76.4617919921875,-40.71044921875
-1.3084716796875,0.03125,-0.203857421875,62.3931884765625,79.4219970703125,-39.1082763671875
-1.3341064453125,0.0257568359375,-0.220458984375,44.96002197265625,83.73260498046875,-35.70556640625
-1.3289794921875,0.0108642578125,-0.267822265625,20.71380615234375,84.4573974609375,-34.99603271484375
-1.28955078125,-0.00146484375,-0.31298828125,-6.26373291015625,93.6279296875,-37.36114501953125
-1.2664794921875,-0.017578125,-0.376953125,-19.70672607421875,97.259521484375,-37.41455078125
-1.2305908203125,-0.0330810546875,-0.4525146484375,-26.39007568359375,102.04315185546875,-38.15460205078125
-1.1834716796875,-0.03515625,-0.4951171875,-14.6331787109375,106.77337646484375,-38.116455078125
-1.1392822265625,-0.0325927734375,-0.5042724609375,15.48004150390625,106.42242431640625,-34.24835205078125
-1.0982666015625,-0.0235595703125,-0.478515625,59.0057373046875,99.18975830078125,-27.16827392578125
-1.0693359375,-0.012939453125,-0.4246826171875,106.658935546875,87.188720703125,-19.02008056640625
-1.0545654296875,-0.00341796875,-0.354736328125,147.6287841796875,72.8759765625,-12.90130615234375
-1.037841796875,0.003173828125,-0.2742919921875,173.71368408203125,60.11199951171875,-10.9710693359375
-1.01806640625,0.005126953125,-0.194580078125,180.47332763671875,50.0335693359375,-13.43536376953125
-0.89599609375,0.1663818359375,-0.159912109375,189.21661376953125,23.07891845703125,-12.2222900390625
-1.017578125,0.3123779296875,-0.0841064453125,249.99237060546875,-86.26556396484375,22.9644775390625
-0.869140625,0.3580322265625,0.0430908203125,249.99237060546875,-158.1878662109375,54.54254150390625
-0.8328857421875,0.392822265625,0.2967529296875,249.99237060546875,-149.35302734375,69.89288330078125
-0.842529296875,0.3955078125,0.6732177734375,249.99237060546875,-84.4268798828125,55.03082275390625
-0.8892822265625,0.3399658203125,1.0216064453125,249.99237060546875,-58.34197998046875,44.3267822265625
-0.9324951171875,0.2706298828125,1.16796875,249.99237060546875,-71.1669921875,40.2984619140625
-0.952392578125,0.23486328125,1.128662109375,229.4464111328125,-90.33203125,28.7628173828125
-0.9327392578125,0.22607421875,0.9461669921875,91.65191650390625,-106.842041015625,17.1661376953125
-0.91845703125,0.1678466796875,0.724365234375,-19.317626953125,-122.84088134765625,17.303466796875
-0.9093017578125,0.122314453125,0.4923095703125,-95.35980224609375,-132.6141357421875,22.86529541015625
-0.8892822265625,0.0731201171875,0.3062744140625,-137.64190673828125,-132.60650634765625,25.62713623046875
-0.8511962890625,0.0360107421875,0.1533203125,-161.376953125,-121.86431884765625,19.95849609375
-0.8074951171875,0.0107421875,0.021484375,-174.75128173828125,-104.1107177734375,9.48333740234375
-0.775634765625,-0.009521484375,-0.1014404296875,-178.16162109375,-84.34295654296875,-0.0457763671875
-0.76025390625,-0.02001953125,-0.19775390625,-167.25921630859375,-65.6890869140625,-4.00543212890625
-0.7640380859375,-0.0303955078125,-0.3011474609375,-149.6734619140625,-47.87445068359375,-4.69970703125
-0.7725830078125,-0.0384521484375,-0.3677978515625,-123.138427734375,-29.83856201171875,-2.25830078125
-0.7828369140625,-0.0399169921875,-0.4019775390625,-85.6170654296875,-15.98358154296875,3.41796875
-0.7989501953125,-0.0396728515625,-0.408203125,-42.38128662109375,-7.68280029296875,11.1541748046875
-0.818359375,-0.04052734375,-0.394287109375,0.5340576171875,-4.84466552734375,19.5465087890625
-0.8497314453125,-0.042236328125,-0.3614501953125,37.22381591796875,-5.5999755859375,27.04620361328125
-0.87353515625,-0.052734375,-0.320068359375,63.629150390625,-5.71441650390625,31.8756103515625
-0.9000244140625,-0.061279296875,-0.26953125,80.108642578125,-4.669189453125,31.280517578125
-0.9095458984375,-0.0606689453125,-0.2249755859375,86.3800048828125,-3.31878662109375,23.93341064453125
-0.9310302734375,-0.0589599609375,-0.207763671875,82.92388916015625,-2.3193359375,15.380859375
-0.9456787109375,-0.057373046875,-0.204833984375,74.64599609375,0.4425048828125,8.64410400390625
-0.9654541015625,-0.06103515625,-0.1925048828125,65.5517578125,3.5858154296875,2.29644775390625
-0.975830078125,-0.062255859375,-0.1705322265625,54.66461181640625,4.67681884765625,-6.75201416015625
-0.9588623046875,-0.0582275390625,-0.1588134765625,40.33660888671875,3.9825439453125,-19.683837890625
-0.926513671875,-0.0487060546875,-0.1640625,23.9715576171875,2.38800048828125,-32.73773193359375
-0.90380859375,-0.038330078125,-0.1776123046875,8.697509765625,2.63214111328125,-42.0989990234375
-0.8873291015625,-0.0316162109375,-0.2022705078125,-2.61688232421875,1.53350830078125,-47.55401611328125
-0.867919921875,-0.0283203125,-0.2259521484375,-8.1024169921875,-0.19073486328125,-50.384521484375
-0.8446044921875,-0.025390625,-0.2451171875,-7.99560546875,-0.8544921875,-51.10931396484375
-0.805908203125,-0.022216796875,-0.248779296875,-3.63922119140625,-1.190185546875,-50.2777099609375
-0.7738037109375,-0.0184326171875,-0.2508544921875,1.6937255859375,-0.152587890625,-47.20306396484375
-0.756591796875,-0.014404296875,-0.245849609375,6.38580322265625,2.899169921875,-41.50390625
-0.7584228515625,-0.01171875,-0.236083984375,8.8958740234375,7.32421875,-34.11102294921875
-0.76953125,-0.00927734375,-0.2227783203125,7.354736328125,13.11492919921875,-25.21514892578125
-0.7877197265625,-0.0079345703125,-0.2147216796875,0.26702880859375,21.2249755859375,-15.5181884765625
-0.82177734375,-0.00634765625,-0.212890625,-11.90185546875,31.9061279296875,-4.150390625
-0.8883056640625,-0.007568359375,-0.2232666015625,-27.77862548828125,45.82977294921875,9.22393798828125
-0.9490966796875,-0.0155029296875,-0.2430419921875,-44.60906982421875,62.19482421875,23.24676513671875
-1.1744384765625,-0.2086181640625,0.239501953125,-58.2427978515625,77.23236083984375,38.97857666015625
-1.973388671875,-0.530029296875,1.2958984375,26.4434814453125,-64.8193359375,70.2362060546875
-1.4444580078125,0.04296875,1.99993896484375,151.19171142578125,-209.4573974609375,86.52496337890625
-1.2640380859375,0.3878173828125,1.99993896484375,-25.53558349609375,-223.04534912109375,60.4400634765625
-1.05712890625,0.335205078125,1.5997314453125,-159.69085693359375,-230.11016845703125,32.23419189453125
-0.9197998046875,0.205322265625,0.9351806640625,-205.95550537109375,-203.34625244140625,17.61627197265625
-0.8760986328125,0.1158447265625,0.452392578125,-207.57293701171875,-142.4713134765625,14.617919921875
-0.9136962890625,0.0445556640625,0.1749267578125,-188.59100341796875,-60.3485107421875,14.42718505859375
-0.9130859375,-0.001708984375,-0.0126953125,-155.18951416015625,4.69207763671875,8.0413818359375
-0.9468994140625,-0.0272216796875,-0.1676025390625,-110.626220703125,45.745849609375,6.14166259765625
-0.9859619140625,-0.0390625,-0.2489013671875,-56.14471435546875,70.04547119140625,14.03045654296875
-1.0537109375,-0.0438232421875,-0.2916259765625,-2.8076171875,83.5113525390625,30.52520751953125
-1.1240234375,-0.043212890625,-0.306640625,39.52789306640625,98.3428955078125,47.11151123046875
-1.18310546875,-0.050048828125,-0.28564453125,57.31964111328125,111.8927001953125,56.63299560546875
-1.22509765625,-0.0615234375,-0.281494140625,59.356689453125,123.80218505859375,59.9822998046875
-1.221923828125,-0.0687255859375,-0.2833251953125,55.68695068359375,136.1083984375,56.854248046875
-1.2032470703125,-0.073486328125,-0.2520751953125,51.30767822265625,141.62445068359375,51.8341064453125
-1.181884765625,-0.0755615234375,-0.2054443359375,46.48590087890625,135.68115234375,46.2188720703125
-1.1368408203125,-0.0706787109375,-0.1602783203125,36.76605224609375,121.551513671875,38.03253173828125
-1.1007080078125,-0.0626220703125,-0.132568359375,21.942138671875,100.60882568359375,31.7840576171875
-1.0780029296875,-0.05419921875,-0.11083984375,3.77655029296875,75.0885009765625,27.42767333984375
-1.0443115234375,-0.0484619140625,-0.098876953125,-17.486572265625,45.86029052734375,25.4669189453125
-1.008056640625,-0.0447998046875,-0.1075439453125,-39.74151611328125,13.96942138671875,25.87127685546875
-0.999755859375,-0.044677734375,-0.132568359375,-58.70819091796875,-20.60699462890625,28.29742431640625
-1.017578125,-0.04443359375,-0.172119140625,-73.0438232421875,-52.734375,31.4178466796875
-1.0440673828125,-0.0460205078125,-0.2108154296875,-82.14569091796875,-78.6895751953125,34.8052978515625
-1.04248046875,-0.047607421875,-0.2357177734375,-86.57073974609375,-98.57940673828125,38.970947265625
-1.016357421875,-0.0521240234375,-0.2462158203125,-87.85247802734375,-113.60931396484375,44.21234130859375
-0.98046875,-0.058349609375,-0.2496337890625,-87.77618408203125,-124.57275390625,50.1251220703125
-0.9315185546875,-0.0615234375,-0.25048828125,-87.890625,-131.3934326171875,55.267333984375
-0.8760986328125,-0.062744140625,-0.2545166015625,-88.60015869140625,-132.568359375,59.2193603515625
-0.8121337890625,-0.0654296875,-0.2620849609375,-88.14239501953125,-129.70733642578125,61.50054931640625
-0.753662109375,-0.0693359375,-0.2752685546875,-85.357666015625,-123.1689453125,63.40789794921875
-0.6978759765625,-0.0743408203125,-0.29248046875,-79.7882080078125,-110.9771728515625,66.10107421875
-0.6656494140625,-0.0819091796875,-0.3033447265625,-70.62530517578125,-93.0938720703125,69.81658935546875
-0.6533203125,-0.08984375,-0.306640625,-59.41009521484375,-69.5037841796875,72.97515869140625
-0.655029296875,-0.0958251953125,-0.2991943359375,-48.33221435546875,-41.16058349609375,74.47052001953125
-0.67822265625,-0.1019287109375,-0.2896728515625,-38.8336181640625,-11.00921630859375,74.554443359375
-0.7095947265625,-0.105224609375,-0.276123046875,-31.4483642578125,19.012451171875,73.6541748046875
-0.7310791015625,-0.10791015625,-0.2586669921875,-25.85601806640625,47.4395751953125,70.98388671875
-0.744873046875,-0.1064453125,-0.2353515625,-21.85821533203125,71.34246826171875,67.17681884765625
-0.7413330078125,-0.1025390625,-0.2110595703125,-20.050048828125,88.67645263671875,63.59100341796875
-0.7774658203125,-0.105224609375,-0.20751953125,-19.378662109375,98.724365234375,59.36431884765625
-0.8087158203125,-0.1043701171875,-0.204345703125,-18.02825927734375,105.1025390625,53.38287353515625
-0.8309326171875,-0.1041259765625,-0.203857421875,-16.02935791015625,108.245849609375,46.15020751953125
-0.8492431640625,-0.1041259765625,-0.2095947265625,-12.56561279296875,108.36029052734375,38.14697265625
-0.8721923828125,-0.1063232421875,-0.21875,-6.40869140625,106.11724853515625,29.96063232421875
-0.9017333984375,-0.1094970703125,-0.2293701171875,2.44140625,101.32598876953125,22.04132080078125
-0.921630859375,-0.110595703125,-0.2352294921875,13.32855224609375,95.03936767578125,14.22119140625
-0.9329833984375,-0.1082763671875,-0.2335205078125,25.5889892578125,86.60125732421875,6.2255859375
-0.9361572265625,-0.10205078125,-0.2333984375,37.2467041015625,77.79693603515625,-2.0904541015625
-0.927978515625,-0.09375,-0.2393798828125,47.66845703125,70.47271728515625,-9.97161865234375
-0.900146484375,-0.08740234375,-0.241455078125,57.91473388671875,65.6585693359375,-17.28057861328125
-0.8768310546875,-0.08349609375,-0.2386474609375,67.95501708984375,62.29400634765625,-23.71978759765625
-0.866943359375,-0.07861328125,-0.2301025390625,76.65252685546875,60.56976318359375,-29.70123291015625
-0.87255859375,-0.076904296875,-0.224853515625,82.000732421875,61.4013671875,-35.9344482421875
-0.8646240234375,-0.0740966796875,-0.2457275390625,84.58709716796875,62.98065185546875,-42.21343994140625
-0.88818359375,-0.061279296875,-0.2373046875,87.53204345703125,65.43731689453125,-44.07501220703125
-0.96044921875,-0.0640869140625,-0.1968994140625,80.352783203125,87.738037109375,-45.989990234375
-1.038330078125,-0.0711669921875,-0.2232666015625,59.15069580078125,122.01690673828125,-46.4019775390625
-1.1259765625,-0.080810546875,-0.202392578125,37.0941162109375,165.85540771484375,-49.07989501953125
-1.21337890625,-0.0809326171875,-0.2001953125,15.75469970703125,195.25146484375,-55.0384521484375
-1.30126953125,-0.08203125,-0.2479248046875,-0.244140625,201.54571533203125,-60.3790283203125
-1.343505859375,-0.07958984375,-0.296630859375,-4.34112548828125,195.38116455078125,-65.338134765625
-1.3778076171875,-0.081298828125,-0.3734130859375,4.08935546875,186.77520751953125,-68.30596923828125
-1.3974609375,-0.0311279296875,-0.3592529296875,25.0244140625,184.04388427734375,-69.74029541015625
-1.516845703125,-0.0439453125,-0.54736328125,29.47998046875,172.32513427734375,-74.6917724609375
-1.4730224609375,0.017333984375,-0.58349609375,47.34039306640625,249.99237060546875,-90.39306640625
-1.638427734375,0.126953125,-0.5787353515625,63.995361328125,249.99237060546875,-86.23504638671875
-1.6951904296875,0.2525634765625,-0.33447265625,80.16204833984375,249.99237060546875,-69.38934326171875
-1.8634033203125,0.705322265625,1.0111083984375,112.0452880859375,249.99237060546875,-38.36822509765625
-1.9144287109375,0.8310546875,1.7808837890625,103.6834716796875,228.98101806640625,-9.521484375
-1.7977294921875,0.599853515625,1.2515869140625,15.899658203125,70.9991455078125,-2.0294189453125
-1.762451171875,0.3946533203125,0.5859375,-43.66302490234375,-49.62158203125,-1.30462646484375
-1.6943359375,0.218505859375,0.0926513671875,-44.34967041015625,-138.275146484375,-10.01739501953125
-1.4697265625,0.12890625,-0.1015625,2.63214111328125,-206.67266845703125,-27.16827392578125
-1.48193359375,0.07373046875,-0.0816650390625,49.85809326171875,-239.75372314453125,-37.14752197265625
-1.46337890625,0.0423583984375,-0.1068115234375,61.30218505859375,-250.0,-49.285888671875
-1.3612060546875,0.0443115234375,-0.1090087890625,48.492431640625,-250.0,-62.255859375
-1.2747802734375,0.048095703125,-0.10546875,17.7154541015625,-250.0,-67.35992431640625
-1.2254638671875,0.044921875,-0.1407470703125,-23.94866943359375,-238.85345458984375,-66.42913818359375
-1.2144775390625,0.0286865234375,-0.215576171875,-63.37738037109375,-224.639892578125,-62.774658203125
-1.226318359375,0.004150390625,-0.3077392578125,-89.6759033203125,-210.2203369140625,-58.73870849609375
-1.2198486328125,-0.0166015625,-0.3983154296875,-96.4508056640625,-198.46343994140625,-54.05426025390625
-1.184326171875,-0.0302734375,-0.4658203125,-82.05413818359375,-190.643310546875,-45.3033447265625
-1.1453857421875,-0.0416259765625,-0.510986328125,-51.2847900390625,-184.661865234375,-29.4952392578125
-1.119384765625,-0.052734375,-0.512939453125,-11.444091796875,-175.54473876953125,-8.575439453125
-1.096435546875,-0.06201171875,-0.4775390625,27.984619140625,-161.29302978515625,12.176513671875
-1.072509765625,-0.0677490234375,-0.410888671875,58.8836669921875,-143.85986328125,29.88433837890625
-1.05908203125,-0.0731201171875,-0.335205078125,75.6072998046875,-127.0904541015625,42.4652099609375
-1.0445556640625,-0.078857421875,-0.2613525390625,75.68359375,-112.1978759765625,49.12567138671875
-1.0179443359375,-0.0853271484375,-0.2015380859375,60.272216796875,-100.19683837890625,50.384521484375
-0.9757080078125,-0.09130859375,-0.16943359375,34.08050537109375,-92.49114990234375,47.515869140625
-0.9332275390625,-0.097412109375,-0.1705322265625,4.21905517578125,-88.85955810546875,42.10662841796875
-0.885498046875,-0.1029052734375,-0.194091796875,-21.240234375,-88.35601806640625,34.5458984375
-0.8377685546875,-0.1068115234375,-0.2318115234375,-36.53717041015625,-91.45355224609375,26.60369873046875
-0.78759765625,-0.1068115234375,-0.27734375,-38.59710693359375,-97.991943359375,20.16448974609375
-0.740234375,-0.101806640625,-0.307373046875,-28.16009521484375,-103.668212890625,16.7694091796875
-0.7081298828125,-0.09765625,-0.31591796875,-10.1776123046875,-105.4840087890625,15.95306396484375
-0.6954345703125,-0.0919189453125,-0.2999267578125,9.62066650390625,-104.92706298828125,15.92254638671875
-0.687744140625,-0.084716796875,-0.2689208984375,25.0091552734375,-102.9052734375,15.55633544921875
-0.6883544921875,-0.0777587890625,-0.231689453125,31.646728515625,-99.73907470703125,15.350341796875
-0.695556640625,-0.0738525390625,-0.201171875,28.045654296875,-96.26007080078125,14.83154296875
-0.705322265625,-0.0716552734375,-0.186279296875,15.472412109375,-92.22412109375,13.74053955078125
-0.711669921875,-0.0694580078125,-0.1904296875,-2.44903564453125,-87.1429443359375,12.2833251953125
-0.7091064453125,-0.0682373046875,-0.2132568359375,-20.95794677734375,-80.29937744140625,11.505126953125
-0.7059326171875,-0.07275390625,-0.2496337890625,-34.99603271484375,-71.7315673828125,11.932373046875
-0.7022705078125,-0.0802001953125,-0.288330078125,-41.14532470703125,-61.34033203125,13.55743408203125
-0.701416015625,-0.087890625,-0.3216552734375,-38.3758544921875,-48.7213134765625,15.84625244140625
-0.705810546875,-0.0933837890625,-0.337890625,-28.01513671875,-34.14154052734375,18.22662353515625
-0.7138671875,-0.0943603515625,-0.335693359375,-13.55743408203125,-18.69964599609375,20.57647705078125
-0.7216796875,-0.0926513671875,-0.3145751953125,0.6103515625,-3.08990478515625,22.6898193359375
-0.732421875,-0.08935546875,-0.284423828125,10.650634765625,11.505126953125,24.33013916015625
-0.7379150390625,-0.0850830078125,-0.253662109375,14.4195556640625,24.169921875,25.1007080078125
-0.73779296875,-0.08203125,-0.2296142578125,11.94000244140625,34.44671630859375,25.1617431640625
-0.7305908203125,-0.0810546875,-0.217529296875,5.18798828125,42.6483154296875,24.60479736328125
-0.7244873046875,-0.08203125,-0.22021484375,-3.05938720703125,49.26300048828125,23.96392822265625
-0.725830078125,-0.0830078125,-0.235107421875,-9.84954833984375,55.0384521484375,23.88763427734375
-0.7366943359375,-0.08544921875,-0.25537109375,-13.03863525390625,60.84442138671875,24.74212646484375
-0.7574462890625,-0.0888671875,-0.2740478515625,-12.02392578125,67.37518310546875,26.2603759765625
-0.7982177734375,-0.093017578125,-0.2890625,-7.82012939453125,75.15716552734375,27.87017822265625
