accel_x,accel_y,accel_z,gyro_x,gyro_y,gyro_z
-1.0479736328125,0.2645263671875,0.0311279296875,20.05767822265625,-31.005859375,-19.59228515625
-1.0543212890625,0.2666015625,0.030517578125,21.575927734375,-30.364990234375,-19.59991455078125
-1.058349609375,0.2679443359375,0.03173828125,25.90179443359375,-29.1748046875,-19.71435546875
-1.0634765625,0.27001953125,0.03271484375,31.2652587890625,-28.045654296875,-19.26422119140625
-1.0687255859375,0.2720947265625,0.0321044921875,34.21783447265625,-26.86309814453125,-18.6920166015625
-1.080322265625,0.2742919921875,0.033203125,33.53118896484375,-24.65057373046875,-18.6767578125
-1.102783203125,0.2806396484375,0.035400390625,33.74481201171875,-22.05657958984375,-19.683837890625
-1.1417236328125,0.294921875,0.0404052734375,37.9180908203125,-20.4315185546875,-21.575927734375
-1.1727294921875,0.3089599609375,0.0419921875,42.32025146484375,-20.40863037109375,-22.003173828125
-1.1700439453125,0.3118896484375,0.040283203125,42.877197265625,-19.47784423828125,-21.88873291015625
-1.1522216796875,0.3121337890625,0.0440673828125,40.9698486328125,-16.4031982421875,-23.4222412109375
-1.1324462890625,0.297607421875,0.09130859375,38.32244873046875,-13.83209228515625,-24.81842041015625
-1.1207275390625,0.2828369140625,0.1099853515625,59.48638916015625,-23.773193359375,-25.04730224609375
-1.108642578125,0.2652587890625,0.1732177734375,72.27325439453125,-37.74261474609375,-22.95684814453125
-1.119384765625,0.2294921875,0.2484130859375,86.20452880859375,-51.93328857421875,-21.9573974609375
-1.1009521484375,0.260009765625,0.2857666015625,91.705322265625,-63.995361328125,-20.82061767578125
-1.0723876953125,0.2882080078125,0.273193359375,64.59808349609375,-75.439453125,-17.9290771484375
-1.05419921875,0.2928466796875,0.2313232421875,3.84521484375,-84.73968505859375,-14.61029052734375
-1.048095703125,0.28271484375,0.1435546875,-48.7060546875,-98.2208251953125,-11.2457275390625
-1.0384521484375,0.2705078125,0.039794921875,-55.10711669921875,-106.60552978515625,-10.68878173828125
-1.0191650390625,0.2723388671875,0.0345458984375,-24.55902099609375,-113.86871337890625,-10.223388671875
-0.9984130859375,0.2752685546875,0.02685546875,-8.81195068359375,-119.7509765625,-9.05609130859375
-0.9730224609375,0.27099609375,0.020751953125,-15.63262939453125,-120.46051025390625,-6.805419921875
-0.9439697265625,0.2607421875,0.01806640625,-32.96661376953125,-118.0572509765625,-4.41741943359375
-0.918701171875,0.2506103515625,0.01904296875,-44.586181640625,-115.98968505859375,-2.593994140625
-0.8968505859375,0.24462890625,0.022705078125,-42.13714599609375,-116.08123779296875,-0.66375732421875
-0.881103515625,0.240234375,0.0128173828125,-29.571533203125,-118.255615234375,1.79290771484375
-0.868408203125,0.2413330078125,0.01123046875,-14.5721435546875,-119.81201171875,5.10406494140625
-0.8577880859375,0.2386474609375,0.0023193359375,-8.331298828125,-119.71282958984375,8.96453857421875
-0.8504638671875,0.2357177734375,-0.0032958984375,-13.8702392578125,-116.7755126953125,12.0849609375
-0.846435546875,0.2344970703125,-0.00244140625,-25.390625,-112.7471923828125,14.4195556640625
-0.8463134765625,0.23486328125,0.0047607421875,-34.26361083984375,-109.5733642578125,16.54815673828125
-0.8544921875,0.238037109375,0.0098876953125,-35.14862060546875,-108.39080810546875,18.79119873046875
-0.86328125,0.24462890625,0.012939453125,-28.28216552734375,-108.87908935546875,21.81243896484375
-0.875,0.2506103515625,0.0106201171875,-19.2108154296875,-109.45892333984375,26.20697021484375
-0.884033203125,0.255859375,0.0062255859375,-14.48822021484375,-108.551025390625,31.4788818359375
-0.8848876953125,0.25732421875,0.0048828125,-18.341064453125,-104.9346923828125,37.0025634765625
-0.888916015625,0.25634765625,0.00830078125,-29.25872802734375,-99.2431640625,42.2821044921875
-0.8916015625,0.2513427734375,0.0120849609375,-41.09954833984375,-93.26171875,46.97418212890625
-0.89404296875,0.244384765625,0.0152587890625,-45.99761962890625,-88.653564453125,50.94146728515625
-0.8975830078125,0.2391357421875,0.02001953125,-42.6483154296875,-86.181640625,53.8482666015625
-0.8946533203125,0.2340087890625,0.023193359375,-37.42218017578125,-84.5947265625,55.6182861328125
-0.8944091796875,0.2303466796875,0.028076171875,-36.72027587890625,-82.57293701171875,56.00738525390625
-0.9005126953125,0.227783203125,0.0302734375,-42.6177978515625,-79.85687255859375,54.77142333984375
-0.90234375,0.2237548828125,0.0313720703125,-51.025390625,-76.95770263671875,52.14691162109375
-0.9051513671875,0.2213134765625,0.0435791015625,-55.65643310546875,-76.43890380859375,49.11041259765625
-0.9072265625,0.2235107421875,0.03466796875,-54.48150634765625,-83.41217041015625,46.39434814453125
-0.9078369140625,0.2237548828125,0.0235595703125,-48.2940673828125,-87.16583251953125,44.13604736328125
-0.906982421875,0.2286376953125,0.0250244140625,-45.22705078125,-85.296630859375,40.56549072265625
-0.898193359375,0.2314453125,0.0228271484375,-50.25482177734375,-82.0770263671875,36.99493408203125
-0.880615234375,0.2303466796875,0.02294921875,-58.868408203125,-76.7364501953125,33.9813232421875
-0.8717041015625,0.230224609375,0.026611328125,-63.83514404296875,-71.258544921875,31.95953369140625
-0.8731689453125,0.2314453125,0.0289306640625,-61.03515625,-68.06182861328125,31.12030029296875
-0.8719482421875,0.233642578125,0.0333251953125,-51.483154296875,-66.5740966796875,31.24237060546875
-0.863525390625,0.2208251953125,-0.008544921875,-38.81072998046875,-64.47601318359375,31.18896484375
-0.8597412109375,0.215576171875,-0.064208984375,-29.56390380859375,-59.051513671875,30.303955078125
-0.864013671875,0.2176513671875,-0.0528564453125,-41.7633056640625,-52.75726318359375,28.1829833984375
-0.87451171875,0.2235107421875,-0.036376953125,-49.4232177734375,-49.49188232421875,26.98516845703125
-0.8818359375,0.2298583984375,-0.0252685546875,-51.0406494140625,-49.37744140625,26.763916015625
-0.8851318359375,0.2342529296875,-0.0213623046875,-48.13385009765625,-50.07171630859375,27.25982666015625
-0.89306640625,0.239501953125,-0.024169921875,-43.8690185546875,-50.4608154296875,28.4576416015625
-0.8900146484375,0.2425537109375,-0.0238037109375,-42.3431396484375,-48.88916015625,30.3192138671875
-0.8841552734375,0.2421875,-0.021240234375,-45.501708984375,-44.57855224609375,32.5469970703125
-0.8685302734375,0.23681640625,-0.015380859375,-50.30059814453125,-39.00909423828125,34.58404541015625
-0.859619140625,0.233154296875,-0.0050048828125,-53.71856689453125,-34.04998779296875,36.14044189453125
-0.864990234375,0.2337646484375,0.0037841796875,-53.863525390625,-29.91485595703125,36.96441650390625
-0.8790283203125,0.23583984375,0.0126953125,-50.07171630859375,-26.6265869140625,37.6129150390625
-0.906494140625,0.2415771484375,0.01953125,-45.09735107421875,-24.017333984375,38.1011962890625
-0.9365234375,0.2491455078125,0.02099609375,-41.900634765625,-21.93450927734375,37.6739501953125
-0.9635009765625,0.255126953125,0.021728515625,-41.90826416015625,-19.4244384765625,36.72027587890625
-0.9896240234375,0.2607421875,0.0223388671875,-42.50335693359375,-16.54815673828125,35.27069091796875
-1.007080078125,0.2645263671875,0.021240234375,-41.1376953125,-13.763427734375,33.69140625
-1.0096435546875,0.263671875,0.0224609375,-36.91864013671875,-10.56671142578125,32.29522705078125
-1.0177001953125,0.265869140625,0.025146484375,-30.4107666015625,-7.22503662109375,30.60150146484375
-1.0367431640625,0.268310546875,0.019287109375,-23.834228515625,-3.74603271484375,28.5797119140625
-1.146240234375,0.992431640625,0.6785888671875,-22.5982666015625,-3.88336181640625,30.0445556640625
-1.2864990234375,1.4322509765625,1.4437255859375,-152.22930908203125,-35.430908203125,72.235107421875
-1.269775390625,1.105224609375,1.3538818359375,-250.0,-98.24371337890625,110.69488525390625
-1.142822265625,0.7613525390625,0.90576171875,-250.0,-132.110595703125,115.0360107421875
-0.8426513671875,0.50390625,0.662841796875,-218.3990478515625,-167.32025146484375,110.46600341796875
-0.772216796875,0.4119873046875,0.554931640625,35.4461669921875,-184.6160888671875,109.82513427734375
-0.8380126953125,0.3712158203125,0.413818359375,91.04156494140625,-104.88128662109375,93.0633544921875
-0.93359375,0.3570556640625,0.3447265625,64.361572265625,-31.494140625,71.44927978515625
-1.050048828125,0.34912109375,0.260498046875,1.74713134765625,14.0380859375,48.2635498046875
-1.113525390625,0.3406982421875,0.2039794921875,-26.37481689453125,44.68536376953125,27.94647216796875
-1.1280517578125,0.340087890625,0.1734619140625,5.47027587890625,57.18994140625,14.99176025390625
-1.109130859375,0.33642578125,0.15625,65.71197509765625,53.76434326171875,11.0321044921875
-1.07666015625,0.3326416015625,0.1466064453125,104.30145263671875,45.562744140625,8.65936279296875
-1.0650634765625,0.3310546875,0.1361083984375,95.23773193359375,39.77203369140625,4.2266845703125
-1.089111328125,0.3319091796875,0.12060546875,50.98724365234375,36.70501708984375,-1.94549560546875
-1.12548828125,0.33251953125,0.1033935546875,5.62286376953125,33.33282470703125,-8.9111328125
-1.1514892578125,0.3348388671875,0.089599609375,-13.28277587890625,26.13067626953125,-15.2435302734375
-1.1405029296875,0.3359375,0.0806884765625,-3.143310546875,14.97650146484375,-19.5159912109375
-1.0870361328125,0.3309326171875,0.078369140625,16.2353515625,3.1585693359375,-20.83587646484375
-1.0343017578125,0.327880859375,0.0797119140625,21.47674560546875,-5.615234375,-20.04241943359375
-0.987548828125,0.321533203125,0.0799560546875,3.34930419921875,-9.5977783203125,-17.73834228515625
-0.9384765625,0.3001708984375,0.0831298828125,-27.68707275390625,-10.42938232421875,-13.20648193359375
-0.884521484375,0.2698974609375,0.093017578125,-52.83355712890625,-12.8936767578125,-9.43756103515625
-0.8355712890625,0.2427978515625,0.1048583984375,-61.614990234375,-21.7742919921875,-8.4686279296875
-0.8048095703125,0.2283935546875,0.1104736328125,-57.64007568359375,-37.6129150390625,-10.3912353515625
-0.796875,0.2264404296875,0.10791015625,-54.19921875,-56.06842041015625,-14.190673828125
-0.810302734375,0.2320556640625,0.10107421875,-63.323974609375,-72.41058349609375,-19.05059814453125
-0.8323974609375,0.2374267578125,0.091064453125,-86.12060546875,-84.61761474609375,-25.10833740234375
-0.84375,0.238037109375,0.08154296875,-110.443115234375,-94.09332275390625,-32.17315673828125
-0.857421875,0.2384033203125,0.0731201171875,-121.03271484375,-103.78265380859375,-39.00909423828125
-0.8604736328125,0.2401123046875,0.065673828125,-113.922119140625,-114.57061767578125,-44.97528076171875
-0.8531494140625,0.240966796875,0.0611572265625,-98.9837646484375,-125.34332275390625,-49.8046875
-0.8448486328125,0.24609375,0.054931640625,-89.1265869140625,-134.16290283203125,-54.5806884765625
-0.83984375,0.25146484375,0.0460205078125,-89.78271484375,-139.16015625,-58.746337890625
-0.834228515625,0.253173828125,0.0330810546875,-94.84100341796875,-139.68658447265625,-61.54632568359375
-0.818603515625,0.2520751953125,0.021240234375,-93.51348876953125,-136.29150390625,-62.9730224609375
-0.79150390625,0.2489013671875,0.0146484375,-81.53533935546875,-129.96673583984375,-62.56103515625
-0.75537109375,0.2445068359375,0.0130615234375,-64.1632080078125,-121.54388427734375,-59.76104736328125
-0.717041015625,0.2396240234375,0.01318359375,-49.4842529296875,-110.87799072265625,-55.24444580078125
-0.6912841796875,0.235107421875,0.013427734375,-41.25213623046875,-98.14453125,-49.4232177734375
-0.6800537109375,0.2308349609375,0.0130615234375,-36.6973876953125,-84.4573974609375,-42.7703857421875
-0.682861328125,0.2291259765625,0.013427734375,-29.876708984375,-70.25146484375,-36.04888916015625
-0.6944580078125,0.228759765625,0.01708984375,-18.890380859375,-56.427001953125,-28.89251708984375
-0.7191162109375,0.23095703125,0.0196533203125,-6.32476806640625,-43.243408203125,-22.11761474609375
-0.7509765625,0.2347412109375,0.022705078125,3.99017333984375,-30.2734375,-16.265869140625
-0.790283203125,0.2391357421875,0.025146484375,11.199951171875,-17.1051025390625,-11.63482666015625
-0.8319091796875,0.244873046875,0.0284423828125,17.18902587890625,-4.21142578125,-8.4686279296875
-0.868896484375,0.25,0.032958984375,24.0478515625,7.537841796875,-6.37054443359375
-0.8985595703125,0.254150390625,0.0386962890625,32.46307373046875,17.35687255859375,-5.31768798828125
-0.9222412109375,0.2576904296875,0.04541015625,40.94696044921875,25.10833740234375,-5.340576171875
-0.94482421875,0.26171875,0.052978515625,47.6837158203125,30.60150146484375,-6.55364990234375
-0.9649658203125,0.2647705078125,0.0587158203125,51.75018310546875,33.86688232421875,-8.70513916015625
-0.993896484375,0.2689208984375,0.0631103515625,54.10003662109375,34.759521484375,-12.04681396484375
-1.0302734375,0.276611328125,0.0662841796875,56.182861328125,33.21075439453125,-16.89910888671875
-1.0667724609375,0.2869873046875,0.070068359375,58.7615966796875,29.47998046875,-22.65167236328125
-1.0989990234375,0.2972412109375,0.0726318359375,61.50054931640625,23.67401123046875,-28.6712646484375
-1.1273193359375,0.3079833984375,0.0738525390625,62.8662109375,16.3726806640625,-34.5916748046875
-1.1534423828125,0.3184814453125,0.072509765625,61.5081787109375,8.35418701171875,-40.19927978515625
-1.1624755859375,0.32421875,0.072021484375,56.5948486328125,0.4425048828125,-45.29571533203125
-1.1517333984375,0.3248291015625,0.074951171875,48.57635498046875,-7.19451904296875,-50.018310546875
-1.12353515625,0.3211669921875,0.0762939453125,38.79547119140625,-14.862060546875,-53.84063720703125
-1.1092529296875,0.3154296875,0.075439453125,28.43475341796875,-23.33831787109375,-56.2744140625
-1.1278076171875,0.3165283203125,0.0703125,19.00482177734375,-32.1807861328125,-59.28802490234375
-1.2080078125,0.3338623046875,0.060302734375,11.10076904296875,-40.6341552734375,-63.95721435546875
-1.3131103515625,0.3671875,0.0474853515625,5.45501708984375,-48.370361328125,-70.6787109375
-1.3116455078125,0.37890625,-0.0750732421875,0.9307861328125,-53.375244140625,-75.2410888671875
-1.2296142578125,0.430908203125,-0.1639404296875,37.5213623046875,-45.47119140625,-74.51629638671875
-1.1951904296875,0.407470703125,-0.17236328125,22.2015380859375,-43.365478515625,-72.50213623046875
-1.192626953125,0.379638671875,-0.144287109375,-15.9454345703125,-33.9202880859375,-72.3114013671875
-1.18212890625,0.3463134765625,-0.0936279296875,-24.444580078125,-26.86309814453125,-75.25634765625
-1.1817626953125,0.324462890625,-0.225830078125,23.47564697265625,-32.40203857421875,-79.7576904296875
-1.285400390625,0.3583984375,-0.1649169921875,122.55096435546875,42.633056640625,-96.13800048828125
-1.2926025390625,0.3792724609375,0.0198974609375,182.74688720703125,114.73846435546875,-120.06378173828125
-1.30615234375,0.783935546875,0.6697998046875,247.99346923828125,51.45263671875,-133.36181640625
-0.900390625,1.5323486328125,1.6658935546875,249.99237060546875,-84.23614501953125,-90.91949462890625
-0.8349609375,1.339599609375,1.5841064453125,249.99237060546875,-84.20562744140625,-88.2415771484375
-0.9488525390625,1.1070556640625,1.12841796875,249.99237060546875,-53.5736083984375,-83.27484130859375
-0.97021484375,0.9058837890625,0.7005615234375,249.99237060546875,-20.5078125,-51.71966552734375
-0.9246826171875,0.73583984375,0.44873046875,11.8255615234375,2.7313232421875,-22.2625732421875
-0.91162109375,0.562744140625,0.357177734375,-229.2938232421875,13.092041015625,-0.93841552734375
-0.935546875,0.4093017578125,0.1995849609375,-250.0,-21.9879150390625,23.96392822265625
-0.944580078125,0.323974609375,0.1153564453125,-223.70147705078125,-72.34954833984375,46.69189453125
-0.923095703125,0.33203125,-0.3475341796875,-60.60791015625,-118.65234375,65.12451171875
-0.8978271484375,0.2850341796875,-0.2310791015625,-88.38653564453125,-105.76629638671875,77.35443115234375
-0.9249267578125,0.2130126953125,-0.0758056640625,-127.02178955078125,-96.79412841796875,82.69500732421875
-0.9593505859375,0.143798828125,0.1007080078125,-81.87103271484375,-111.25946044921875,85.5560302734375
-0.97705078125,0.133544921875,0.2113037109375,-2.40325927734375,-142.37213134765625,85.63232421875
-0.97509765625,0.15673828125,0.239990234375,24.49798583984375,-164.78729248046875,84.6099853515625
-0.9544677734375,0.1781005859375,0.1871337890625,-19.75250244140625,-165.8935546875,83.1756591796875
-0.9368896484375,0.1822509765625,0.1275634765625,-75.47760009765625,-151.4434814453125,81.61163330078125
-0.92626953125,0.1781005859375,0.096923828125,-91.6290283203125,-138.09967041015625,79.5440673828125
-0.914306640625,0.1773681640625,0.08154296875,-61.5692138671875,-133.8348388671875,77.178955078125
-0.8916015625,0.1820068359375,0.0753173828125,-12.88604736328125,-135.8489990234375,74.5391845703125
-0.85888671875,0.1876220703125,0.06982421875,17.21954345703125,-136.8408203125,70.99151611328125
-0.8238525390625,0.1915283203125,0.060302734375,11.5966796875,-131.744384765625,65.9027099609375
-0.7969970703125,0.189697265625,0.0487060546875,-14.6331787109375,-121.4141845703125,60.49346923828125
-0.778564453125,0.1846923828125,0.04150390625,-31.92138671875,-110.43548583984375,56.44989013671875
-0.766357421875,0.18017578125,0.0374755859375,-24.1851806640625,-103.69110107421875,54.6875
-0.763671875,0.1806640625,0.0335693359375,1.953125,-100.56304931640625,54.13055419921875
-0.7637939453125,0.184814453125,0.0306396484375,25.35247802734375,-96.06170654296875,53.070068359375
-0.7633056640625,0.18896484375,0.0281982421875,30.4107666015625,-86.395263671875,50.1708984375
-0.7633056640625,0.1915283203125,0.029052734375,19.10400390625,-72.296142578125,45.79925537109375
-0.7640380859375,0.1927490234375,0.03076171875,6.98089599609375,-58.00628662109375,41.5802001953125
-0.7657470703125,0.19287109375,0.0347900390625,8.36181640625,-47.18780517578125,38.74969482421875
-0.772705078125,0.197509765625,0.040771484375,23.81134033203125,-40.90118408203125,37.10174560546875
-0.78515625,0.2061767578125,0.0465087890625,41.43524169921875,-37.0330810546875,36.2396240234375
-0.802001953125,0.216552734375,0.049072265625,48.50006103515625,-32.79876708984375,35.247802734375
-0.8199462890625,0.225830078125,0.052001953125,41.43524169921875,-26.9317626953125,34.04998779296875
-0.8380126953125,0.23046875,0.0543212890625,27.984619140625,-20.65277099609375,33.0810546875
-0.8544921875,0.232666015625,0.0577392578125,19.92034912109375,-16.47186279296875,32.562255859375
-0.87548828125,0.238525390625,0.06103515625,22.5830078125,-15.70892333984375,32.40966796875
-0.8980712890625,0.248046875,0.064208984375,31.0211181640625,-17.60101318359375,32.9437255859375
-0.916015625,0.2562255859375,0.066162109375,35.40802001953125,-20.13397216796875,34.3170166015625
-0.9322509765625,0.260498046875,0.065673828125,30.059814453125,-21.93450927734375,35.77423095703125
-0.9560546875,0.2650146484375,0.0635986328125,17.95196533203125,-22.85003662109375,36.30828857421875
-0.9827880859375,0.2689208984375,0.060302734375,7.01141357421875,-23.70452880859375,36.56768798828125
-1.0096435546875,0.272705078125,0.0572509765625,3.41033935546875,-25.67291259765625,36.834716796875
-1.03271484375,0.276123046875,0.0543212890625,6.6986083984375,-28.7628173828125,37.04833984375
-1.0517578125,0.279052734375,0.051513671875,11.138916015625,-31.80694580078125,36.93389892578125
-1.0648193359375,0.27978515625,0.046875,11.34490966796875,-33.34808349609375,35.94207763671875
-1.0718994140625,0.2772216796875,0.0433349609375,6.32476806640625,-32.7606201171875,33.69903564453125
-1.0751953125,0.2724609375,0.0394287109375,-0.091552734375,-30.46417236328125,29.99114990234375
-1.07421875,0.266357421875,0.0367431640625,-3.19671630859375,-27.557373046875,24.7039794921875
-1.0821533203125,0.265869140625,0.037109375,-1.7852783203125,-24.84893798828125,17.75360107421875
-1.089111328125,0.2713623046875,0.0347900390625,-1.56402587890625,-22.3846435546875,9.185791015625
-1.1104736328125,0.27734375,0.0186767578125,-3.692626953125,-19.37103271484375,0.92315673828125
-1.034423828125,0.8980712890625,0.48974609375,-4.9591064453125,-10.406494140625,-7.2021484375
-0.831787109375,1.6434326171875,1.035400390625,-240.5242919921875,18.798828125,13.09967041015625
-0.8123779296875,1.2073974609375,0.716552734375,-250.0,71.9451904296875,42.9840087890625
-0.9696044921875,0.870849609375,0.5057373046875,-250.0,137.15362548828125,64.18609619140625
-1.0809326171875,0.74072265625,0.417236328125,-29.296875,123.14605712890625,76.68304443359375
-1.13720703125,0.7294921875,0.3861083984375,249.99237060546875,50.7965087890625,81.18438720703125
-1.1312255859375,0.691650390625,0.3182373046875,249.99237060546875,-6.12640380859375,87.21923828125
-1.0914306640625,0.620361328125,0.259521484375,249.99237060546875,-12.4664306640625,87.34893798828125
-1.0726318359375,0.52734375,0.193115234375,143.8446044921875,14.6484375,76.0345458984375
-1.0714111328125,0.42626953125,0.1373291015625,-121.52099609375,40.71807861328125,59.173583984375
-1.0712890625,0.339599609375,0.107177734375,-215.56854248046875,40.0848388671875,45.02105712890625
-1.068115234375,0.3001708984375,0.088134765625,-123.54278564453125,5.31768798828125,37.3992919921875
-1.0509033203125,0.3072509765625,0.0771484375,49.041748046875,-44.891357421875,35.4156494140625
-1.0318603515625,0.3336181640625,0.0726318359375,161.0565185546875,-82.21435546875,36.82708740234375
-1.0052490234375,0.3397216796875,0.066162109375,139.99176025390625,-92.15545654296875,38.81072998046875
-1.0086669921875,0.3201904296875,0.0552978515625,17.08984375,-79.7271728515625,36.59820556640625
-1.0689697265625,0.295166015625,0.0478515625,-110.3363037109375,-64.23187255859375,27.8778076171875
-1.119140625,0.2698974609375,0.047119140625,-158.9813232421875,-64.1937255859375,15.37322998046875
-1.118408203125,0.2513427734375,0.0540771484375,-114.1357421875,-84.869384765625,2.92205810546875
-1.086669921875,0.2535400390625,0.0626220703125,-32.2723388671875,-116.98150634765625,-9.17816162109375
-1.0455322265625,0.2667236328125,0.0643310546875,8.36181640625,-144.927978515625,-20.9808349609375
-1.0072021484375,0.276123046875,0.0567626953125,-27.16064453125,-158.19549560546875,-33.79058837890625
-0.9656982421875,0.2698974609375,0.0360107421875,-108.1390380859375,-158.111572265625,-47.63031005859375
-0.9122314453125,0.24755859375,0.0174560546875,-168.0908203125,-152.34375,-59.4329833984375
-0.8486328125,0.224853515625,0.0068359375,-164.08538818359375,-149.7650146484375,-66.5130615234375
-0.7801513671875,0.209716796875,0.002685546875,-107.36083984375,-152.32086181640625,-67.60406494140625
-0.72021484375,0.20703125,0.0001220703125,-48.36273193359375,-152.70233154296875,-65.55938720703125
-0.6767578125,0.208740234375,-0.002685546875,-32.03582763671875,-142.23480224609375,-63.5528564453125
-0.64990234375,0.203369140625,-0.006591796875,-60.394287109375,-119.7357177734375,-62.79754638671875
-0.63671875,0.1905517578125,-0.00439453125,-94.81048583984375,-92.926025390625,-62.92724609375
-0.6346435546875,0.18017578125,0.0025634765625,-96.2066650390625,-72.05963134765625,-62.4847412109375
-0.6424560546875,0.1790771484375,0.01318359375,-58.61663818359375,-61.3555908203125,-60.60028076171875
-0.6556396484375,0.187255859375,0.021240234375,-9.4757080078125,-56.671142578125,-58.46405029296875
-0.6763916015625,0.1990966796875,0.02587890625,17.669677734375,-50.48370361328125,-57.85369873046875
-0.702392578125,0.2088623046875,0.028564453125,12.3748779296875,-38.88702392578125,-59.3719482421875
-0.7330322265625,0.2137451171875,0.03076171875,-8.00323486328125,-24.62005615234375,-61.82098388671875
-0.7652587890625,0.2178955078125,0.034912109375,-16.41845703125,-13.427734375,-63.77410888671875
-0.7999267578125,0.225830078125,0.040283203125,-1.068115234375,-8.76617431640625,-64.3463134765625
-0.831787109375,0.23974609375,0.0443115234375,27.32086181640625,-9.5977783203125,-63.8427734375
-0.8570556640625,0.2540283203125,0.04736328125,47.9583740234375,-11.13128662109375,-62.95013427734375
-0.8807373046875,0.265625,0.04736328125,48.46954345703125,-9.69696044921875,-62.255859375
-0.901611328125,0.2705078125,0.0494384765625,33.7677001953125,-5.4473876953125,-61.7218017578125
-0.916015625,0.2694091796875,0.052978515625,20.02716064453125,-1.6937255859375,-60.87493896484375
-0.92626953125,0.2677001953125,0.0587158203125,20.1568603515625,-1.8310546875,-59.4940185546875
-0.9359130859375,0.2681884765625,0.066162109375,33.24127197265625,-7.01141357421875,-57.8155517578125
-0.9454345703125,0.2713623046875,0.0711669921875,46.82159423828125,-15.37322998046875,-56.5032958984375
-0.9530029296875,0.274169921875,0.074462890625,48.72894287109375,-24.0020751953125,-56.21337890625
-0.95947265625,0.2742919921875,0.076171875,35.9649658203125,-31.463623046875,-57.48748779296875
-0.9716796875,0.273681640625,0.073486328125,17.17376708984375,-38.7420654296875,-60.0433349609375
-0.9976806640625,0.2774658203125,0.06884765625,4.78363037109375,-47.32513427734375,-62.96539306640625
-1.039794921875,0.2835693359375,0.0621337890625,4.7760009765625,-57.99102783203125,-65.3228759765625
-1.0845947265625,0.2965087890625,0.0711669921875,15.90728759765625,-70.21331787109375,-70.281982421875
-1.1318359375,0.322021484375,0.0538330078125,19.90509033203125,-86.78436279296875,-77.5604248046875
-1.181640625,0.3406982421875,0.0399169921875,12.45880126953125,-96.83990478515625,-81.207275390625
-1.2139892578125,0.35546875,0.026123046875,0.35858154296875,-101.49383544921875,-84.6405029296875
-1.219970703125,0.35693359375,0.012939453125,-10.12420654296875,-102.6153564453125,-86.15875244140625
-1.1787109375,0.370361328125,-0.5291748046875,-81.91680908203125,-64.17083740234375,-85.44158935546875
-1.158203125,0.3369140625,-0.32470703125,-89.04266357421875,-10.44464111328125,-88.78326416015625
-1.1444091796875,0.3597412109375,-0.32421875,-7.75146484375,-18.06640625,-87.860107421875
-1.1605224609375,0.3511962890625,-0.2235107421875,38.87939453125,-20.843505859375,-86.08245849609375
-1.224609375,0.3682861328125,-0.1556396484375,72.8607177734375,-26.611328125,-85.7391357421875
-1.283935546875,0.388427734375,-0.114501953125,86.11297607421875,-31.7535400390625,-85.12115478515625
-1.3013916015625,0.3968505859375,-0.0885009765625,67.78717041015625,-29.64019775390625,-84.3658447265625
-1.2674560546875,0.3818359375,-0.07080078125,34.00421142578125,-20.69854736328125,-82.3822021484375
-1.2408447265625,0.3619384765625,-0.05908203125,11.74163818359375,-9.26971435546875,-79.864501953125
-1.2391357421875,0.357177734375,-0.0478515625,15.84625244140625,0.213623046875,-78.4912109375
-1.222412109375,0.35888671875,-0.037353515625,40.15350341796875,6.7596435546875,-76.71356201171875
-1.1966552734375,0.3570556640625,-0.0277099609375,66.10107421875,13.4429931640625,-72.4945068359375
-1.14892578125,0.3536376953125,-0.010009765625,78.28521728515625,23.0560302734375,-68.7713623046875
-1.111083984375,0.3480224609375,0.0013427734375,71.98333740234375,32.99713134765625,-64.2852783203125
-1.0849609375,0.33447265625,0.010498046875,59.83734130859375,42.2515869140625,-57.88421630859375
-1.0677490234375,0.3228759765625,0.03369140625,57.01446533203125,48.11859130859375,-52.28424072265625
-1.0648193359375,0.3182373046875,0.0321044921875,64.21661376953125,42.50335693359375,-47.41668701171875
-1.0546875,0.3140869140625,0.040283203125,75.93536376953125,37.81890869140625,-43.9605712890625
-1.0489501953125,0.2969970703125,0.0614013671875,81.62689208984375,33.4014892578125,-43.57147216796875
-1.123291015625,0.1453857421875,0.3677978515625,129.8828125,37.07122802734375,-42.3736572265625
-1.1231689453125,0.1802978515625,0.5382080078125,249.99237060546875,15.98358154296875,-43.75457763671875
-1.0570068359375,0.2393798828125,0.5732421875,249.99237060546875,-19.53125,-32.2723388671875
-1.0087890625,0.203125,0.71484375,249.99237060546875,-32.257080078125,-27.61077880859375
-0.9715576171875,0.091552734375,0.2489013671875,207.72552490234375,-40.1611328125,-26.3671875
-0.9327392578125,0.0673828125,0.341064453125,176.20849609375,-43.39599609375,-19.83642578125
-0.89306640625,0.037353515625,0.3897705078125,104.644775390625,-50.7354736328125,-15.57159423828125
-0.849609375,0.0462646484375,0.415283203125,15.09857177734375,-53.9093017578125,-16.51763916015625
-0.8150634765625,0.069091796875,0.29248046875,-84.02252197265625,-54.351806640625,-19.34051513671875
-0.76611328125,0.09326171875,0.23974609375,-154.4036865234375,-54.26788330078125,-23.38409423828125
-0.736328125,0.119140625,0.191162109375,-167.41180419921875,-63.19427490234375,-27.22930908203125
-0.7098388671875,0.147216796875,0.153564453125,-121.07086181640625,-81.1614990234375,-21.0723876953125
-0.6859130859375,0.1700439453125,0.125,-47.30224609375,-103.66058349609375,-5.82122802734375
-0.673828125,0.146240234375,0.1160888671875,4.09698486328125,-120.361328125,11.61956787109375
-0.677978515625,0.117431640625,0.1405029296875,11.260986328125,-125.54168701171875,25.45166015625
-0.6868896484375,0.0980224609375,0.140869140625,-6.76727294921875,-123.97003173828125,36.75079345703125
-0.7542724609375,-0.0286865234375,0.24560546875,-28.1829833984375,-121.4752197265625,45.53985595703125
-0.7457275390625,-0.0042724609375,0.211181640625,-5.6610107421875,-130.76019287109375,49.76654052734375
-0.74951171875,0.0303955078125,0.168212890625,-1.15966796875,-133.64410400390625,52.26898193359375
-0.7685546875,0.054931640625,0.127685546875,-31.707763671875,-125.70953369140625,53.6956787109375
-0.800048828125,0.0447998046875,0.103515625,-63.51470947265625,-113.15155029296875,54.443359375
-0.82470703125,0.062744140625,0.08056640625,-68.19915771484375,-104.3243408203125,54.58831787109375
-0.8387451171875,0.1417236328125,-0.0333251953125,-41.4581298828125,-101.3336181640625,57.2509765625
-0.866455078125,0.1636962890625,-0.1114501953125,-37.5518798828125,-90.47698974609375,61.85150146484375
-0.8846435546875,0.170166015625,-0.1156005859375,-24.383544921875,-79.5135498046875,59.91363525390625
-0.895751953125,0.177490234375,-0.113037109375,-17.578125,-74.13482666015625,56.86187744140625
-0.9189453125,0.1031494140625,-0.0738525390625,-4.46319580078125,-69.95391845703125,54.595947265625
-0.9473876953125,0.0283203125,-0.016357421875,11.66534423828125,-67.66510009765625,48.82049560546875
-0.9482421875,0.0535888671875,0.01025390625,26.3824462890625,-66.2841796875,41.51153564453125
-0.9212646484375,0.0987548828125,0.0201416015625,33.37860107421875,-63.28582763671875,38.45977783203125
-0.8895263671875,0.13134765625,0.02490234375,25.24566650390625,-57.55615234375,37.7655029296875
-0.8646240234375,0.15087890625,0.0291748046875,8.6669921875,-49.94964599609375,37.933349609375
-0.8487548828125,0.1556396484375,0.037353515625,-2.50244140625,-43.43414306640625,38.4674072265625
-0.8466796875,0.1553955078125,0.049560546875,-0.00762939453125,-40.7257080078125,38.04779052734375
-0.85986328125,0.1524658203125,0.0697021484375,12.16888427734375,-41.80908203125,37.4298095703125
-0.885986328125,0.1326904296875,0.1116943359375,24.84893798828125,-45.23468017578125,37.65869140625
-0.9373779296875,0.052490234375,0.2093505859375,39.08538818359375,-52.92510986328125,37.07122802734375
-1.01806640625,-0.05126953125,0.350341796875,68.9697265625,-70.03021240234375,33.0963134765625
-1.1495361328125,-0.1685791015625,0.356689453125,70.54901123046875,-87.57781982421875,27.7252197265625
-1.2340087890625,-0.153564453125,0.4305419921875,35.83526611328125,-99.32708740234375,25.73394775390625
-1.1905517578125,-0.036376953125,0.4141845703125,75.6072998046875,-114.18914794921875,36.65924072265625
-1.1224365234375,0.1002197265625,0.4825439453125,135.7574462890625,-129.8065185546875,52.16217041015625
-1.0828857421875,0.2191162109375,0.5819091796875,168.73931884765625,-143.8751220703125,68.5882568359375
-1.0146484375,0.25732421875,0.66064453125,187.164306640625,-152.6947021484375,84.73968505859375
-0.9295654296875,0.32421875,0.74365234375,167.3736572265625,-144.4854736328125,87.56256103515625
-0.877685546875,0.37060546875,0.834716796875,127.31170654296875,-114.959716796875,74.5849609375
-0.875,0.3741455078125,0.8291015625,63.8427734375,-98.5870361328125,61.981201171875
-0.89990234375,0.384765625,0.7471923828125,-28.2135009765625,-84.5947265625,47.44720458984375
-0.938720703125,0.375,0.5892333984375,-160.3851318359375,-68.70269775390625,32.4554443359375
-0.9320068359375,0.3338623046875,0.403564453125,-250.0,-46.07391357421875,21.6522216796875
-0.94873046875,0.3023681640625,0.2825927734375,-250.0,-22.0489501953125,11.34490966796875
-0.9765625,0.2906494140625,0.212646484375,-236.53411865234375,-13.75579833984375,6.59942626953125
-1.021240234375,0.3065185546875,0.1500244140625,-117.16461181640625,-25.6500244140625,7.904052734375
-1.0548095703125,0.3294677734375,0.1021728515625,-9.1400146484375,-34.03472900390625,12.1002197265625
-1.06201171875,0.3582763671875,0.0684814453125,34.12628173828125,-23.87237548828125,15.03753662109375
-1.07763671875,0.3634033203125,0.0574951171875,3.60107421875,6.15692138671875,22.15576171875
-1.1092529296875,0.3494873046875,0.0587158203125,-51.09405517578125,36.97967529296875,32.56988525390625
-1.21240234375,0.1524658203125,0.2159423828125,-60.52398681640625,49.0264892578125,43.4112548828125
-1.265625,0.070556640625,0.301513671875,38.87176513671875,26.79443359375,46.0662841796875
-1.2598876953125,0.192626953125,0.0982666015625,140.44952392578125,0.66375732421875,46.6766357421875
-1.2373046875,0.2059326171875,0.1046142578125,47.5921630859375,14.30511474609375,46.47064208984375
-1.2132568359375,0.208984375,0.0863037109375,-70.465087890625,34.912109375,41.1834716796875
-1.2193603515625,0.217529296875,0.095703125,-112.23602294921875,41.015625,32.47833251953125
-1.2091064453125,0.230224609375,0.104736328125,-67.32177734375,16.326904296875,26.58843994140625
-1.1754150390625,0.2459716796875,-0.089599609375,8.53729248046875,-27.16827392578125,24.3988037109375
-1.1475830078125,0.2591552734375,-0.0579833984375,-7.97271728515625,-37.45269775390625,16.66259765625
-1.1201171875,0.2713623046875,-0.0255126953125,-29.44183349609375,-40.4205322265625,9.185791015625
-1.075927734375,0.2728271484375,-0.0003662109375,-24.35302734375,-50.35400390625,7.568359375
-1.03857421875,0.2784423828125,0.01025390625,-7.2021484375,-64.78118896484375,8.30841064453125
-1.00341796875,0.281005859375,0.016357421875,1.312255859375,-74.6307373046875,9.57489013671875
-0.968505859375,0.2822265625,0.02685546875,-9.05609130859375,-77.43072509765625,10.61248779296875
-0.928955078125,0.265869140625,0.039306640625,-35.86578369140625,-76.4617919921875,12.41302490234375
-0.894287109375,0.2489013671875,0.044189453125,-61.798095703125,-77.21710205078125,11.41357421875
-0.861083984375,0.238037109375,0.044921875,-68.90869140625,-81.52008056640625,8.06427001953125
-0.81884765625,0.22216796875,0.0064697265625,-58.67767333984375,-88.3636474609375,5.3558349609375
-0.7921142578125,0.2249755859375,0.002197265625,-56.37359619140625,-92.23175048828125,3.0670166015625
-0.7724609375,0.221435546875,0.0008544921875,-55.2520751953125,-95.184326171875,4.5166015625
-0.7513427734375,0.2099609375,-0.01025390625,-54.6875,-97.59521484375,7.3089599609375
-0.73681640625,0.2083740234375,-0.0203857421875,-52.43682861328125,-98.09112548828125,9.0484619140625
-0.7236328125,0.201416015625,-0.02587890625,-48.10333251953125,-96.51947021484375,13.0767822265625
-0.714111328125,0.1966552734375,-0.02392578125,-41.49627685546875,-93.49822998046875,17.4102783203125
-0.712158203125,0.1954345703125,-0.0189208984375,-32.6995849609375,-88.8214111328125,21.1181640625
-0.7152099609375,0.1943359375,-0.01416015625,-24.37591552734375,-81.8328857421875,24.2156982421875
-0.720458984375,0.1943359375,-0.0069580078125,-18.56231689453125,-72.32666015625,25.90179443359375
-0.72802734375,0.194091796875,0.0003662109375,-14.8773193359375,-61.42425537109375,26.29852294921875
-0.737548828125,0.1949462890625,0.0076904296875,-11.02447509765625,-50.59814453125,25.65765380859375
-0.7486572265625,0.19677734375,0.0146484375,-4.3487548828125,-41.1529541015625,24.71923828125
-0.7633056640625,0.2001953125,0.0224609375,5.33294677734375,-33.50067138671875,23.93341064453125
-0.780029296875,0.2049560546875,0.02783203125,15.6402587890625,-27.03857421875,23.13995361328125
-0.8033447265625,0.2113037109375,0.03271484375,23.32305908203125,-20.965576171875,22.16339111328125
-0.828125,0.21923828125,0.0364990234375,26.824951171875,-15.19775390625,20.79010009765625
-0.8468017578125,0.2237548828125,0.03955078125,27.41241455078125,-10.01739501953125,19.3023681640625
-0.85986328125,0.224609375,0.04345703125,28.45001220703125,-5.9051513671875,17.63916015625
-0.8724365234375,0.2259521484375,0.04638671875,31.99005126953125,-3.13568115234375,15.289306640625
-0.8851318359375,0.2283935546875,0.050537109375,36.85760498046875,-1.42669677734375,12.115478515625
-0.8895263671875,0.228271484375,0.0552978515625,40.435791015625,-0.518798828125,8.36944580078125
-0.89111328125,0.2286376953125,0.059326171875,40.9393310546875,-0.335693359375,3.68499755859375
-0.8990478515625,0.2310791015625,0.0640869140625,38.88702392578125,-1.21307373046875,-1.76239013671875
-0.9176025390625,0.2369384765625,0.0665283203125,36.2548828125,-3.936767578125,-7.2784423828125
-0.93994140625,0.2449951171875,0.06689453125,35.6597900390625,-8.636474609375,-12.359619140625
-0.966064453125,0.253662109375,0.0650634765625,38.2080078125,-14.9078369140625,-16.7694091796875
-0.998291015625,0.2650146484375,0.061279296875,42.13714599609375,-21.6064453125,-21.03424072265625
-1.0377197265625,0.28125,0.0555419921875,44.4488525390625,-27.51922607421875,-25.42877197265625
-1.07861328125,0.2982177734375,0.051025390625,43.39599609375,-32.05108642578125,-29.266357421875
-1.1075439453125,0.3118896484375,0.046142578125,39.75677490234375,-35.63690185546875,-31.91375732421875
-1.1248779296875,0.322021484375,0.0418701171875,36.2091064453125,-38.56658935546875,-33.26416015625
-1.124755859375,0.3228759765625,0.03662109375,33.99658203125,-40.9393310546875,-32.44781494140625
-1.1099853515625,0.3153076171875,0.0308837890625,33.477783203125,-42.3583984375,-30.670166015625
-1.0926513671875,0.305908203125,0.0269775390625,33.91265869140625,-42.22869873046875,-29.71649169921875
-1.1197509765625,0.3076171875,0.0223388671875,33.27178955078125,-40.6951904296875,-30.7159423828125
-1.2005615234375,0.329833984375,0.0152587890625,30.54046630859375,-37.811279296875,-33.98895263671875
-1.264404296875,0.3460693359375,0.028564453125,25.0701904296875,-32.92083740234375,-36.43798828125
-1.283203125,0.33740234375,-0.0831298828125,25.1617431640625,-38.36822509765625,-38.4063720703125
-1.3187255859375,0.3502197265625,-0.0960693359375,78.5064697265625,1.04522705078125,-47.1649169921875
-1.3995361328125,0.385498046875,-0.05859375,142.5628662109375,57.06787109375,-59.99755859375
-1.4681396484375,0.43212890625,-0.0018310546875,169.82269287109375,99.4110107421875,-74.59259033203125
-1.4571533203125,0.4520263671875,0.1162109375,155.670166015625,121.63543701171875,-79.12445068359375
-1.2418212890625,0.8145751953125,1.101318359375,137.55035400390625,120.47576904296875,-72.57843017578125
-1.11279296875,1.1094970703125,1.5079345703125,116.11175537109375,52.7801513671875,-45.87554931640625
-0.991455078125,0.837890625,1.1142578125,51.4068603515625,7.88116455078125,-16.9219970703125
-1.0181884765625,0.9234619140625,1.049072265625,95.28350830078125,-50.4302978515625,-6.1798095703125
-1.0250244140625,0.8304443359375,0.74658203125,95.0775146484375,-111.3128662109375,10.43701171875
-1.0040283203125,0.6556396484375,0.4310302734375,33.2183837890625,-124.62615966796875,26.9927978515625
-0.99267578125,0.5343017578125,0.24267578125,18.2647705078125,-127.31170654296875,33.82110595703125
-0.9898681640625,0.46044921875,0.149658203125,26.74102783203125,-135.35308837890625,39.581298828125
-1.0013427734375,0.4176025390625,0.1064453125,23.46038818359375,-139.007568359375,44.01397705078125
-1.022705078125,0.382080078125,0.0748291015625,-2.66265869140625,-135.65826416015625,46.40960693359375
-1.0458984375,0.3525390625,0.05810546875,-25.93231201171875,-127.9449462890625,46.0662841796875
-1.043701171875,0.3280029296875,0.0570068359375,-24.19281005859375,-124.4354248046875,45.34912109375
-1.0223388671875,0.305419921875,0.060302734375,-0.75531005859375,-128.95965576171875,46.234130859375
-0.992431640625,0.2889404296875,0.06298828125,24.5513916015625,-137.97760009765625,47.0123291015625
-0.960693359375,0.2750244140625,0.0606689453125,31.27288818359375,-146.30126953125,46.5545654296875
-0.9183349609375,0.25732421875,0.05322265625,15.4266357421875,-150.81787109375,44.097900390625
-0.8736572265625,0.237548828125,0.0433349609375,-8.1024169921875,-151.95465087890625,39.8406982421875
-0.83642578125,0.2216796875,0.03125,-20.294189453125,-151.89361572265625,34.72137451171875
-0.804443359375,0.2110595703125,0.021240234375,-14.2974853515625,-151.13067626953125,30.49468994140625
-0.7764892578125,0.20703125,0.0142822265625,0.79345703125,-148.21624755859375,27.30560302734375
-0.743408203125,0.2022705078125,0.0111083984375,9.8419189453125,-140.869140625,24.90234375
-0.705810546875,0.1932373046875,0.0098876953125,6.14166259765625,-128.89862060546875,22.613525390625
-0.674560546875,0.1832275390625,0.0126953125,-3.27301025390625,-114.47906494140625,19.63043212890625
-0.655029296875,0.1773681640625,0.017822265625,-5.828857421875,-101.37176513671875,16.6473388671875
-0.6483154296875,0.1754150390625,0.024658203125,3.73077392578125,-91.827392578125,14.83154296875
-0.6558837890625,0.18115234375,0.0301513671875,19.08111572265625,-85.16693115234375,13.72528076171875
-0.67822265625,0.191162109375,0.0340576171875,28.2745361328125,-78.8726806640625,12.79449462890625
-0.708251953125,0.2027587890625,0.03564453125,25.35247802734375,-71.258544921875,11.63482666015625
-0.73779296875,0.20947265625,0.0377197265625,15.19012451171875,-62.69073486328125,10.64300537109375
-0.7677001953125,0.2144775390625,0.0389404296875,7.89642333984375,-55.25970458984375,9.55963134765625
-0.794921875,0.2186279296875,0.0394287109375,9.6588134765625,-50.39215087890625,8.5906982421875
-0.8172607421875,0.2236328125,0.0394287109375,18.88275146484375,-47.50823974609375,7.27081298828125
-0.83544921875,0.231201171875,0.041015625,27.29034423828125,-44.67010498046875,5.18035888671875
-0.84716796875,0.238525390625,0.04296875,27.38189697265625,-40.6951904296875,2.52532958984375
-0.8494873046875,0.24072265625,0.0462646484375,19.12689208984375,-35.6597900390625,0.09918212890625
-0.847412109375,0.2392578125,0.04931640625,8.97979736328125,-31.28814697265625,-1.88446044921875
-0.840576171875,0.2353515625,0.0537109375,4.21142578125,-29.09088134765625,-3.51715087890625
-0.8310546875,0.2313232421875,0.0574951171875,6.3629150390625,-29.47998046875,-5.096435546875
-0.8275146484375,0.232666015625,0.060791015625,10.10894775390625,-31.45599365234375,-7.1258544921875
-0.8302001953125,0.2373046875,0.0616455078125,8.50677490234375,-33.3251953125,-9.3994140625
-0.830322265625,0.2408447265625,0.062255859375,-0.48828125,-34.3170166015625,-11.37542724609375
-0.83203125,0.2412109375,0.0604248046875,-12.26043701171875,-35.24017333984375,-12.9241943359375
-0.8436279296875,0.2430419921875,0.0560302734375,-19.78302001953125,-36.90338134765625,-14.13726806640625
-0.866943359375,0.248046875,0.0494384765625,-19.72198486328125,-39.24560546875,-15.02227783203125
-0.9022216796875,0.2574462890625,0.04296875,-15.13671875,-41.20635986328125,-15.92254638671875
-0.9451904296875,0.27099609375,0.03564453125,-12.15362548828125,-41.4276123046875,-17.23480224609375
-0.9874267578125,0.2835693359375,0.028564453125,-13.90838623046875,-39.07012939453125,-18.6920166015625
-1.0203857421875,0.2918701171875,0.0230712890625,-17.84515380859375,-34.515380859375,-19.99664306640625
-1.044677734375,0.2969970703125,0.0206298828125,-18.69964599609375,-29.07562255859375,-21.21734619140625
-1.065185546875,0.3013916015625,0.0211181640625,-13.80157470703125,-23.78082275390625,-22.27783203125
-1.1573486328125,1.36376953125,1.3040771484375,-80.22308349609375,-37.20855712890625,-7.7056884765625
-1.2137451171875,1.430908203125,1.74462890625,-250.0,-80.780029296875,53.558349609375
-1.27197265625,1.0260009765625,1.99993896484375,-250.0,-154.86907958984375,87.80670166015625
-0.732421875,0.5859375,1.60498046875,-250.0,-233.32977294921875,83.93096923828125
-0.673583984375,0.46826171875,1.3887939453125,-19.9432373046875,-200.47760009765625,59.9365234375
-0.6353759765625,0.40625,1.0595703125,104.7515869140625,-146.4996337890625,29.67071533203125
-0.628662109375,0.345458984375,0.835205078125,116.790771484375,-103.08074951171875,12.0849609375
-0.7054443359375,0.3314208984375,0.6158447265625,59.62371826171875,-85.97564697265625,-8.70513916015625
-0.874267578125,0.348876953125,0.4256591796875,-0.0457763671875,-67.48199462890625,-26.1383056640625
-0.97705078125,0.3643798828125,0.302001953125,-11.10076904296875,-41.290283203125,-34.7137451171875
-1.0118408203125,0.3603515625,0.2286376953125,24.54376220703125,-18.73779296875,-30.18951416015625
-1.0250244140625,0.35205078125,0.1888427734375,70.61004638671875,-2.5634765625,-22.65167236328125
-1.063232421875,0.3558349609375,0.162109375,88.70697021484375,10.2691650390625,-20.17974853515625
-1.14013671875,0.3701171875,0.1358642578125,69.14520263671875,22.1710205078125,-22.2015380859375
-1.2308349609375,0.387451171875,0.1099853515625,34.27886962890625,33.4930419921875,-26.20697021484375
-1.299560546875,0.4019775390625,0.0906982421875,13.8397216796875,41.46575927734375,-29.449462890625
-1.3380126953125,0.4130859375,0.08056640625,19.11163330078125,44.036865234375,-29.44183349609375
-1.3470458984375,0.421875,0.0791015625,37.8875732421875,41.55731201171875,-26.3671875
-1.310546875,0.419677734375,0.08447265625,48.065185546875,37.02545166015625,-21.3470458984375
-1.253173828125,0.4068603515625,0.0924072265625,37.57476806640625,31.6925048828125,-14.41192626953125
-1.1881103515625,0.38427734375,0.0986328125,13.49639892578125,23.90289306640625,-6.70623779296875
-1.1256103515625,0.353759765625,0.1041259765625,-6.4697265625,11.29150390625,1.44195556640625
-1.0693359375,0.3248291015625,0.1126708984375,-11.3525390625,-7.24029541015625,7.75909423828125
-1.0128173828125,0.302490234375,0.1209716796875,-7.1258544921875,-31.31103515625,10.82611083984375
-0.9498291015625,0.2840576171875,0.1212158203125,-9.3841552734375,-57.39593505859375,11.5966796875
-0.893798828125,0.2674560546875,0.112060546875,-27.56500244140625,-80.77239990234375,10.7421875
-0.8680419921875,0.2554931640625,0.097900390625,-56.52618408203125,-99.5941162109375,8.36944580078125
-0.8648681640625,0.249267578125,0.0823974609375,-81.73370361328125,-114.66217041015625,4.49371337890625
-0.861083984375,0.2421875,0.0697021484375,-93.93310546875,-127.197265625,0.06103515625
-0.8544921875,0.239013671875,0.0606689453125,-94.55108642578125,-137.5885009765625,-5.30242919921875
-0.84716796875,0.240478515625,0.0543212890625,-91.8426513671875,-145.7366943359375,-11.138916015625
-0.842041015625,0.244140625,0.0460205078125,-92.1478271484375,-151.1383056640625,-15.8233642578125
-0.842041015625,0.2457275390625,0.0364990234375,-94.8638916015625,-152.91595458984375,-19.34814453125
-0.8387451171875,0.2437744140625,0.030029296875,-95.8099365234375,-151.32904052734375,-22.2625732421875
-0.8321533203125,0.23974609375,0.027587890625,-91.74346923828125,-147.9339599609375,-24.72686767578125
-0.8165283203125,0.2333984375,0.029052734375,-82.5042724609375,-144.29473876953125,-27.27508544921875
-0.7943115234375,0.2274169921875,0.0313720703125,-70.831298828125,-141.07513427734375,-29.876708984375
-0.7657470703125,0.2208251953125,0.031982421875,-59.39483642578125,-137.97760009765625,-32.40203857421875
-0.7281494140625,0.212158203125,0.033203125,-49.25537109375,-134.66644287109375,-34.48486328125
-0.6837158203125,0.2020263671875,0.0345458984375,-40.6951904296875,-130.69915771484375,-36.12518310546875
-0.6392822265625,0.1925048828125,0.03662109375,-33.57696533203125,-126.41143798828125,-37.07122802734375
-0.6033935546875,0.1864013671875,0.03759765625,-27.3590087890625,-121.9329833984375,-37.26959228515625
-0.584228515625,0.18408203125,0.03466796875,-22.22442626953125,-116.943359375,-36.38458251953125
-0.581298828125,0.1837158203125,0.028076171875,-18.18084716796875,-110.931396484375,-34.149169921875
-0.595947265625,0.1861572265625,0.01708984375,-13.84735107421875,-102.9815673828125,-31.25
-0.6209716796875,0.191162109375,0.004638671875,-7.78961181640625,-91.3238525390625,-28.52630615234375
-0.648681640625,0.1971435546875,-0.0076904296875,1.1138916015625,-74.63836669921875,-26.30615234375
-0.6729736328125,0.2012939453125,-0.0118408203125,12.70294189453125,-52.6885986328125,-24.60479736328125
-0.70703125,0.2073974609375,-0.0089111328125,25.0396728515625,-27.83966064453125,-23.67401123046875
-0.7525634765625,0.21728515625,-0.002197265625,37.08648681640625,-2.70843505859375,-23.773193359375
-0.812255859375,0.2303466796875,0.0064697265625,49.09515380859375,20.91217041015625,-24.66583251953125
-0.8839111328125,0.24658203125,0.0164794921875,61.50054931640625,41.4886474609375,-27.39715576171875
-0.95556640625,0.2664794921875,0.0302734375,73.57025146484375,58.20465087890625,-32.3944091796875
-1.01513671875,0.2862548828125,0.0428466796875,83.5723876953125,70.220947265625,-38.27667236328125
-1.057861328125,0.3040771484375,0.0552978515625,90.11077880859375,77.4688720703125,-43.72406005859375
-1.1029052734375,0.32421875,0.107421875,92.36907958984375,79.8797607421875,-47.98126220703125
-1.145751953125,0.380126953125,0.4425048828125,122.25341796875,59.75341796875,-48.7823486328125
-1.167236328125,0.3936767578125,0.3314208984375,158.59222412109375,31.86798095703125,-47.93548583984375
-1.1842041015625,0.405029296875,0.2457275390625,114.898681640625,28.19061279296875,-51.18560791015625
-1.17333984375,0.390380859375,0.1845703125,29.815673828125,40.27557373046875,-52.66571044921875
-1.1583251953125,0.3369140625,0.287841796875,-26.00860595703125,51.6510009765625,-50.49896240234375
-1.164306640625,0.3480224609375,0.2420654296875,37.4755859375,37.7197265625,-52.9022216796875
-1.175048828125,0.3675537109375,0.216552734375,104.43878173828125,13.946533203125,-53.985595703125
-1.227783203125,0.3929443359375,0.1783447265625,88.19580078125,-4.3792724609375,-56.8084716796875
-1.3359375,0.4066162109375,0.1729736328125,16.68548583984375,-10.29205322265625,-61.1114501953125
-1.4287109375,0.423583984375,0.1546630859375,-20.22552490234375,-17.89093017578125,-66.070556640625
-1.3670654296875,0.4058837890625,0.1175537109375,-6.16455078125,-30.059814453125,-67.2454833984375
-1.2840576171875,0.380859375,0.0908203125,16.7236328125,-40.1153564453125,-66.436767578125
-1.217529296875,0.36083984375,0.0792236328125,30.3955078125,-43.304443359375,-67.95501708984375
-1.17919921875,0.35498046875,0.062744140625,30.70068359375,-43.426513671875,-72.45635986328125
-1.143798828125,0.351318359375,0.0501708984375,28.9154052734375,-39.58892822265625,-75.98114013671875
-1.0927734375,0.34619140625,0.04833984375,35.1409912109375,-35.72845458984375,-77.15606689453125
-1.025146484375,0.3194580078125,0.0577392578125,43.365478515625,-32.70721435546875,-73.638916015625
-0.9833984375,0.2740478515625,-0.1021728515625,43.80035400390625,-32.55462646484375,-79.36859130859375
-1.1929931640625,0.3572998046875,-0.076171875,93.56689453125,53.680419921875,-112.1826171875
-1.2210693359375,0.408447265625,0.63037109375,186.95831298828125,97.02301025390625,-118.50738525390625
-1.15380859375,0.520263671875,1.0916748046875,132.59124755859375,-3.265380859375,-106.10198974609375
-1.108642578125,0.4681396484375,0.9710693359375,31.45599365234375,-69.9310302734375,-86.1663818359375
-1.0533447265625,0.403076171875,0.6461181640625,4.99725341796875,-119.34661865234375,-73.05145263671875
-1.0592041015625,0.386962890625,0.4581298828125,49.01885986328125,-136.49749755859375,-64.1632080078125
-1.0838623046875,0.39111328125,0.3580322265625,90.545654296875,-140.29693603515625,-49.468994140625
-1.08203125,0.385498046875,0.293701171875,96.6339111328125,-135.772705078125,-31.79168701171875
-1.029541015625,0.3585205078125,0.259033203125,78.155517578125,-127.0751953125,-15.533447265625
-1.0321044921875,0.3438720703125,0.19677734375,57.0220947265625,-118.499755859375,-2.2430419921875
-1.006103515625,0.314208984375,0.166015625,41.64886474609375,-107.0404052734375,10.498046875
-0.97998046875,0.29541015625,0.138427734375,31.13555908203125,-100.3570556640625,16.39556884765625
-0.94580078125,0.278564453125,0.1148681640625,24.74212646484375,-98.6785888671875,21.240234375
-0.90673828125,0.264892578125,0.098388671875,23.74267578125,-98.5260009765625,26.45111083984375
-0.86962890625,0.2464599609375,0.082275390625,24.55902099609375,-98.51837158203125,31.3873291015625
-0.8450927734375,0.23779296875,0.0758056640625,24.62005615234375,-96.2677001953125,32.5775146484375
-0.8292236328125,0.219482421875,0.1185302734375,21.47674560546875,-94.09332275390625,31.341552734375
-0.79296875,0.20849609375,0.1455078125,30.15899658203125,-96.6949462890625,28.900146484375
-0.748291015625,0.2049560546875,0.1473388671875,27.4200439453125,-98.85406494140625,27.59552001953125
-0.7049560546875,0.1910400390625,0.163818359375,15.167236328125,-99.853515625,27.71759033203125
-0.677490234375,0.1832275390625,0.1427001953125,-6.500244140625,-98.85406494140625,28.594970703125
-0.671875,0.1787109375,0.111572265625,-28.6407470703125,-94.74945068359375,28.839111328125
-0.6839599609375,0.1763916015625,0.091064453125,-37.92572021484375,-90.21759033203125,28.1982421875
-0.7071533203125,0.1815185546875,0.076171875,-28.96881103515625,-87.9974365234375,27.3284912109375
-0.7283935546875,0.1904296875,0.066162109375,-10.53619384765625,-87.39471435546875,27.09197998046875
-0.7479248046875,0.2008056640625,0.057861328125,1.35040283203125,-85.235595703125,27.71759033203125
-0.7618408203125,0.20703125,0.0506591796875,-1.53350830078125,-78.83453369140625,28.717041015625
-0.7701416015625,0.2086181640625,0.049072265625,-14.16015625,-69.6258544921875,29.9530029296875
-0.776611328125,0.206298828125,0.050537109375,-23.6053466796875,-61.248779296875,31.82220458984375
-0.7823486328125,0.205322265625,0.051513671875,-20.91217041015625,-56.365966796875,34.64508056640625
-0.7869873046875,0.206787109375,0.05419921875,-8.697509765625,-54.5501708984375,38.63525390625
-0.7908935546875,0.209228515625,0.05517578125,1.53350830078125,-53.40576171875,43.27392578125
-0.857666015625,-0.1693115234375,0.2645263671875,2.37274169921875,-52.581787109375,45.5169677734375
-0.8592529296875,-0.0201416015625,0.1893310546875,25.0244140625,-65.36865234375,29.510498046875
-0.8399658203125,0.065185546875,0.150634765625,17.913818359375,-64.01824951171875,26.67236328125
-0.799072265625,0.101318359375,0.1153564453125,-27.069091796875,-54.90875244140625,28.9154052734375
-0.7899169921875,0.1192626953125,0.0859375,-67.60406494140625,-43.58673095703125,31.15081787109375
-0.8043212890625,0.1346435546875,0.070556640625,-65.91796875,-36.94915771484375,32.92083740234375
-0.8173828125,0.1536865234375,0.0643310546875,-27.130126953125,-36.73553466796875,35.74371337890625
-0.82861328125,0.1754150390625,0.064697265625,10.6353759765625,-37.49847412109375,37.90283203125
-0.8489990234375,0.1961669921875,0.0599365234375,13.89312744140625,-34.09576416015625,38.1927490234375
-0.8848876953125,0.2115478515625,0.0513916015625,-15.23590087890625,-24.14703369140625,36.87286376953125
-0.9305419921875,0.2216796875,0.044921875,-47.6837158203125,-12.27569580078125,35.6903076171875
-0.9775390625,0.2291259765625,0.041259765625,-55.694580078125,-4.791259765625,36.041259765625
-1.0245361328125,0.239990234375,0.0380859375,-35.01129150390625,-3.2806396484375,37.49847412109375
-1.0687255859375,0.2547607421875,0.03466796875,-4.8980712890625,-3.814697265625,38.5894775390625
-1.1068115234375,0.2696533203125,0.030517578125,10.50567626953125,-0.81634521484375,38.23089599609375
-1.29638671875,0.3873291015625,0.865966796875,4.15802001953125,7.66754150390625,36.2091064453125
-1.2890625,0.5394287109375,1.7899169921875,-91.57562255859375,-3.15093994140625,36.6973876953125
-1.313720703125,0.69970703125,1.99993896484375,-250.0,-54.4586181640625,44.47174072265625
-1.3150634765625,0.6524658203125,1.99993896484375,-250.0,-132.71331787109375,51.29241943359375
-1.2237548828125,0.551513671875,1.7603759765625,-205.83343505859375,-198.79150390625,53.04718017578125
-0.8768310546875,0.370849609375,1.2935791015625,-129.58526611328125,-224.64752197265625,54.46624755859375
-0.7032470703125,0.267333984375,0.947265625,-54.595947265625,-197.296142578125,34.0423583984375
-0.643798828125,0.24658203125,0.80615234375,30.41839599609375,-134.2315673828125,4.98199462890625
-0.6229248046875,0.2464599609375,0.6630859375,62.713623046875,-90.484619140625,-10.18524169921875
-0.6763916015625,0.2613525390625,0.52392578125,46.66900634765625,-64.27001953125,-14.61029052734375
-0.7567138671875,0.2841796875,0.401123046875,13.12255859375,-33.9202880859375,-13.4735107421875
-0.8524169921875,0.28271484375,0.3004150390625,-18.56231689453125,-4.43267822265625,-5.42449951171875
-0.9281005859375,0.2799072265625,0.231201171875,-26.7486572265625,18.37158203125,-3.0670166015625
-0.990478515625,0.2977294921875,0.1934814453125,-5.2642822265625,32.23419189453125,-7.59124755859375
-1.0572509765625,0.329345703125,0.1649169921875,25.299072265625,34.38568115234375,-7.0953369140625
-1.1422119140625,0.3634033203125,0.2210693359375,40.9393310546875,31.2652587890625,0.8697509765625
-1.2158203125,0.3658447265625,0.1492919921875,3.71551513671875,33.721923828125,9.57489013671875
-1.2666015625,0.3599853515625,0.1097412109375,-10.00213623046875,41.0614013671875,17.60101318359375
-1.309814453125,0.3626708984375,0.1649169921875,21.88873291015625,42.77801513671875,25.2532958984375
-1.3323974609375,0.363525390625,0.1295166015625,36.0260009765625,44.99053955078125,28.1829833984375
-1.3157958984375,0.3638916015625,0.1217041015625,48.48480224609375,46.1578369140625,29.083251953125
-1.2947998046875,0.3603515625,0.1173095703125,56.03790283203125,41.0003662109375,31.34918212890625
-1.261962890625,0.360107421875,0.118896484375,45.41015625,33.85162353515625,31.79168701171875
-1.2059326171875,0.33935546875,0.11865234375,20.98846435546875,23.79608154296875,33.4014892578125
-1.1480712890625,0.2957763671875,0.159912109375,-0.518798828125,9.98687744140625,33.19549560546875
-1.0628662109375,0.2738037109375,0.15185546875,-0.93841552734375,-13.14544677734375,27.435302734375
-0.9600830078125,0.2510986328125,0.1365966796875,2.14385986328125,-39.31427001953125,20.85113525390625
-0.857421875,0.23046875,0.1243896484375,3.11279296875,-62.20245361328125,14.50347900390625
-0.7783203125,0.2149658203125,0.10986328125,-3.41033935546875,-80.37567138671875,8.11767578125
-0.746337890625,0.2218017578125,0.0941162109375,-16.4031982421875,-92.94891357421875,2.08282470703125
-0.7305908203125,0.211181640625,0.083740234375,-32.989501953125,-99.92218017578125,2.6092529296875
-0.7275390625,0.2005615234375,0.0726318359375,-47.46246337890625,-104.56085205078125,0.0457763671875
-0.7579345703125,0.2081298828125,0.0679931640625,-52.6123046875,-107.7728271484375,-7.08770751953125
-0.7789306640625,0.2208251953125,0.061767578125,-48.1414794921875,-112.29705810546875,-13.12255859375
-0.7989501953125,0.233154296875,0.05615234375,-39.642333984375,-116.78314208984375,-15.84625244140625
-0.8140869140625,0.2445068359375,0.0521240234375,-35.0494384765625,-119.89593505859375,-16.19720458984375
-0.8153076171875,0.2467041015625,0.0457763671875,-36.956787109375,-120.6512451171875,-14.3890380859375
-0.81494140625,0.241455078125,0.041015625,-40.56549072265625,-119.293212890625,-11.65008544921875
-0.8155517578125,0.2369384765625,0.038818359375,-40.7562255859375,-117.02728271484375,-9.86480712890625
-0.811767578125,0.232421875,0.0380859375,-37.04833984375,-114.5172119140625,-8.941650390625
-0.795654296875,0.2281494140625,0.042236328125,-31.95953369140625,-112.05291748046875,-8.8958740234375
-0.7711181640625,0.22509765625,0.0467529296875,-29.8309326171875,-109.82513427734375,-9.0179443359375
-0.7410888671875,0.220458984375,0.049560546875,-32.867431640625,-108.16192626953125,-8.2244873046875
-0.7152099609375,0.214111328125,0.047607421875,-38.15460205078125,-107.0709228515625,-6.195068359375
-0.703369140625,0.2095947265625,0.0406494140625,-40.39764404296875,-106.19354248046875,-3.0059814453125
-0.7015380859375,0.2069091796875,0.028564453125,-36.91864013671875,-104.11834716796875,1.07574462890625
-0.69970703125,0.2010498046875,0.016357421875,-29.09088134765625,-98.2818603515625,5.5084228515625
-0.6954345703125,0.193603515625,0.005615234375,-20.20263671875,-86.8988037109375,9.033203125
-0.69482421875,0.1854248046875,0.0013427734375,-12.603759765625,-70.0225830078125,10.3759765625
-0.699462890625,0.1796875,0.001220703125,-6.29425048828125,-49.8199462890625,8.85772705078125
-0.7103271484375,0.177001953125,0.0059814453125,1.4495849609375,-29.1900634765625,5.39398193359375
-0.726806640625,0.1773681640625,0.0128173828125,13.74053955078125,-10.2081298828125,0.93841552734375
-0.7493896484375,0.1959228515625,0.2037353515625,13.89312744140625,7.19451904296875,-4.40216064453125
-0.7645263671875,0.17041015625,0.1337890625,-63.89617919921875,28.9459228515625,-11.23809814453125
-0.7899169921875,0.166259765625,0.2423095703125,-48.45428466796875,42.0684814453125,-14.85443115234375
-0.8218994140625,0.1942138671875,0.2796630859375,-5.43975830078125,38.7725830078125,-18.71490478515625
-0.8538818359375,0.193603515625,0.210205078125,60.7757568359375,28.22113037109375,-22.491455078125
-0.9188232421875,0.2230224609375,0.1668701171875,135.59722900390625,15.89202880859375,-28.25164794921875
-1.02685546875,0.272705078125,0.13134765625,178.73382568359375,9.05609130859375,-37.04071044921875
-1.119140625,0.32275390625,0.16162109375,139.9078369140625,17.9443359375,-48.08807373046875
-1.1922607421875,0.3316650390625,0.1207275390625,45.654296875,40.34423828125,-56.78558349609375
-1.252685546875,0.343505859375,0.1795654296875,10.24627685546875,55.4656982421875,-61.24114990234375
-1.2989501953125,0.346923828125,0.17822265625,8.7432861328125,56.4422607421875,-63.72833251953125
-1.2967529296875,0.3487548828125,0.152587890625,40.62652587890625,47.27935791015625,-63.51470947265625
-1.265380859375,0.3507080078125,0.1322021484375,94.12384033203125,32.4859619140625,-60.9130859375
-1.229248046875,0.3568115234375,0.1181640625,124.67193603515625,20.13397216796875,-59.51690673828125
-1.2032470703125,0.356689453125,0.1041259765625,102.18048095703125,17.63916015625,-59.92889404296875
-1.210205078125,0.350830078125,0.0927734375,44.22760009765625,23.84185791015625,-62.225341796875
-1.2685546875,0.35107421875,0.0858154296875,-4.39453125,28.900146484375,-65.72723388671875
-1.3408203125,0.3634033203125,0.0802001953125,-10.92529296875,24.17755126953125,-69.3359375
-1.3687744140625,0.3787841796875,0.07666015625,20.660400390625,9.521484375,-70.770263671875
-1.3880615234375,0.388427734375,0.091552734375,65.65093994140625,-9.31549072265625,-67.6422119140625
-1.407958984375,0.3931884765625,-0.024658203125,108.642578125,-42.5262451171875,-58.95233154296875
-1.3577880859375,0.37646484375,-0.0819091796875,140.4266357421875,-18.62335205078125,-57.8765869140625
-1.1947021484375,0.8897705078125,0.2220458984375,137.44354248046875,53.47442626953125,-65.24658203125
-1.1341552734375,0.6422119140625,0.647705078125,16.83807373046875,132.51495361328125,-23.59771728515625
-1.07568359375,1.0035400390625,1.99993896484375,32.24945068359375,92.1478271484375,-5.340576171875
-1.0052490234375,0.7091064453125,1.9771728515625,55.419921875,-5.92041015625,1.678466796875
-1.0975341796875,0.64501953125,1.479736328125,118.65997314453125,-22.4609375,-11.95526123046875
-1.0806884765625,0.5869140625,1.1485595703125,106.597900390625,-42.44232177734375,-15.472412109375
-1.0198974609375,0.5035400390625,0.8487548828125,8.9263916015625,-77.84271240234375,-9.82666015625
-0.9862060546875,0.4222412109375,0.60791015625,-79.1015625,-104.36248779296875,-5.401611328125
-1.01953125,0.379150390625,0.437744140625,-93.36090087890625,-125.86212158203125,-4.58526611328125
-1.0863037109375,0.36865234375,0.3157958984375,-44.86846923828125,-149.0325927734375,-1.0528564453125
-1.1268310546875,0.370849609375,0.230712890625,9.80377197265625,-167.86956787109375,4.47845458984375
-1.1287841796875,0.365234375,0.1712646484375,23.5137939453125,-174.5452880859375,10.07843017578125
-1.1060791015625,0.3468017578125,0.131103515625,-5.86700439453125,-170.1507568359375,12.5885009765625
-1.0753173828125,0.32177734375,0.1033935546875,-46.39434814453125,-162.841796875,12.07733154296875
-1.041748046875,0.2987060546875,0.0838623046875,-64.056396484375,-160.59112548828125,10.0250244140625
-1.0020751953125,0.2847900390625,0.068115234375,-49.84283447265625,-165.191650390625,9.10186767578125
-0.9617919921875,0.2779541015625,0.0523681640625,-23.76556396484375,-171.85211181640625,10.49041748046875
-0.91357421875,0.2716064453125,0.03564453125,-13.06915283203125,-173.34747314453125,13.5040283203125
-0.8631591796875,0.25830078125,0.0196533203125,-26.4739990234375,-165.4052734375,16.57867431640625
-0.8170166015625,0.239013671875,0.0081787109375,-49.8046875,-149.4140625,18.34869384765625
-0.7767333984375,0.2193603515625,0.0054931640625,-61.981201171875,-131.35528564453125,18.86749267578125
-0.7430419921875,0.202392578125,0.0098876953125,-53.01666259765625,-116.63818359375,19.29473876953125
-0.7191162109375,0.194091796875,0.0167236328125,-29.24346923828125,-106.1553955078125,19.3023681640625
-0.70263671875,0.19287109375,0.0244140625,-8.0108642578125,-97.015380859375,18.73016357421875
-0.695068359375,0.193359375,0.0306396484375,-2.2125244140625,-86.57073974609375,17.51708984375
-0.695068359375,0.1942138671875,0.0357666015625,-10.12420654296875,-74.7833251953125,15.7012939453125
-0.6998291015625,0.1932373046875,0.04150390625,-19.40155029296875,-64.1021728515625,14.068603515625
-0.7103271484375,0.1949462890625,0.047119140625,-18.77593994140625,-57.30438232421875,12.65716552734375
-0.7249755859375,0.2003173828125,0.0523681640625,-7.98797607421875,-54.595947265625,11.74163818359375
-0.7435302734375,0.208984375,0.0537109375,3.60107421875,-53.74908447265625,11.2457275390625
-0.76416015625,0.2196044921875,0.0516357421875,6.73675537109375,-51.8951416015625,10.92529296875
-0.7828369140625,0.2264404296875,0.048828125,-0.0152587890625,-47.63031005859375,10.90240478515625
-0.8018798828125,0.2313232421875,0.0474853515625,-9.8724365234375,-41.93878173828125,10.9405517578125
-0.8165283203125,0.23291015625,0.048095703125,-14.7857666015625,-36.865234375,11.23809814453125
-0.8248291015625,0.234619140625,0.05029296875,-11.7950439453125,-33.48541259765625,11.810302734375
-0.8251953125,0.236083984375,0.0538330078125,-5.47027587890625,-31.42547607421875,12.5579833984375
-0.81640625,0.2337646484375,0.0582275390625,-3.5400390625,-29.632568359375,13.3514404296875
-0.802490234375,0.2283935546875,0.060791015625,-9.28497314453125,-27.32086181640625,13.72528076171875
-0.788818359375,0.2196044921875,0.06396484375,-19.0887451171875,-24.95574951171875,13.17596435546875
-0.7822265625,0.212158203125,0.0662841796875,-26.29852294921875,-23.53668212890625,11.36016845703125
-0.781494140625,0.209716796875,0.069580078125,-27.9083251953125,-23.78082275390625,8.41522216796875
-0.784423828125,0.2127685546875,0.072265625,-26.885986328125,-25.5889892578125,4.99725341796875
-0.7967529296875,0.2203369140625,0.070068359375,-28.37371826171875,-27.923583984375,1.85394287109375
-0.8228759765625,0.230712890625,0.0640869140625,-33.91265869140625,-29.4952392578125,-0.61798095703125
-0.863525390625,0.2437744140625,0.054931640625,-39.98565673828125,-29.6783447265625,-2.532958984375
-0.9107666015625,0.256591796875,0.04638671875,-42.17529296875,-28.77044677734375,-3.7078857421875
-0.95849609375,0.2708740234375,0.040771484375,-39.16168212890625,-27.15301513671875,-4.638671875
-1.0194091796875,0.288818359375,0.034423828125,-33.28704833984375,-24.871826171875,-5.36346435546875
-1.0704345703125,0.3062744140625,0.0277099609375,-27.8778076171875,-21.27838134765625,-5.79833984375
-1.0908203125,0.3143310546875,0.025390625,-24.2462158203125,-15.716552734375,-5.2337646484375
-1.09326171875,0.3157958984375,0.0269775390625,-22.4609375,-8.94927978515625,-4.0435791015625
-1.102294921875,0.3182373046875,0.0281982421875,-21.820068359375,-1.953125,-2.4566650390625
-1.140625,0.327392578125,0.0313720703125,-20.10345458984375,4.7607421875,-0.9765625
-1.1937255859375,0.41796875,0.3280029296875,-17.27294921875,10.5743408203125,-0.06866455078125
-1.6181640625,1.0609130859375,1.99993896484375,-30.54046630859375,-99.7314453125,35.3240966796875
-1.2525634765625,0.8817138671875,1.99993896484375,-22.88055419921875,-250.0,78.0029296875
-0.96142578125,0.6815185546875,1.4735107421875,-5.950927734375,-250.0,79.13970947265625
-0.902099609375,0.603271484375,1.232421875,-43.66302490234375,-97.02301025390625,41.412353515625
-0.8255615234375,0.4779052734375,0.9256591796875,-178.497314453125,-39.86358642578125,29.56390380859375
-0.7733154296875,0.357421875,0.6600341796875,-250.0,-18.66912841796875,24.11651611328125
-0.8359375,0.31640625,0.5064697265625,-198.272705078125,-3.6163330078125,17.7764892578125
-0.9202880859375,0.3328857421875,0.3641357421875,-60.85205078125,-20.88165283203125,16.18194580078125
-0.9825439453125,0.341552734375,0.2540283203125,64.23187255859375,-31.73828125,24.74212646484375
-0.9945068359375,0.346435546875,0.203369140625,104.66766357421875,-13.7786865234375,25.41351318359375
-0.9739990234375,0.341064453125,0.1683349609375,46.3714599609375,18.341064453125,19.63043212890625
-0.9903564453125,0.3203125,0.1331787109375,-42.03033447265625,49.530029296875,18.30291748046875
-1.0267333984375,0.2965087890625,0.11572265625,-80.0933837890625,69.28253173828125,20.59173583984375
-1.07177734375,0.2921142578125,0.1138916015625,-46.11968994140625,70.33538818359375,21.78955078125
-1.1275634765625,0.314453125,0.1015625,23.36883544921875,53.73382568359375,22.54486083984375
-1.143798828125,0.3179931640625,0.093017578125,73.38714599609375,37.9180908203125,24.3072509765625
-1.14501953125,0.3212890625,0.0933837890625,75.8819580078125,31.951904296875,18.34869384765625
-1.11474609375,0.3099365234375,0.0875244140625,33.42437744140625,31.19659423828125,8.056640625
-1.0579833984375,0.27587890625,0.0931396484375,-18.4326171875,34.20257568359375,-3.60107421875
-0.9891357421875,0.2508544921875,0.11474609375,-46.77581787109375,31.31866455078125,-20.0042724609375
-0.9256591796875,0.2464599609375,0.1334228515625,-42.85430908203125,12.50457763671875,-35.888671875
-0.8587646484375,0.244140625,0.1378173828125,-19.96612548828125,-20.1263427734375,-43.76983642578125
-0.8118896484375,0.247802734375,0.129638671875,-2.11334228515625,-54.718017578125,-46.22650146484375
-0.79443359375,0.257568359375,0.1148681640625,-13.09967041015625,-80.7037353515625,-47.393798828125
-0.7991943359375,0.2650146484375,0.098388671875,-56.1676025390625,-95.26824951171875,-49.20196533203125
-0.818603515625,0.269775390625,0.0791015625,-108.97064208984375,-102.79083251953125,-51.6357421875
-0.8326416015625,0.2725830078125,0.060302734375,-142.242431640625,-108.4136962890625,-52.94036865234375
-0.8275146484375,0.27099609375,0.0440673828125,-143.56231689453125,-114.1815185546875,-50.66680908203125
-0.7977294921875,0.2674560546875,0.0303955078125,-124.267578125,-118.20220947265625,-44.6319580078125
-0.7587890625,0.260986328125,0.0205078125,-106.20880126953125,-116.55426025390625,-36.43035888671875
-0.7298583984375,0.2518310546875,0.009521484375,-101.776123046875,-106.80389404296875,-27.7862548828125
-0.7318115234375,0.24365234375,0.0037841796875,-107.88726806640625,-89.80560302734375,-20.263671875
-0.7410888671875,0.234619140625,0.0078125,-112.86163330078125,-69.93865966796875,-14.9688720703125
-0.7598876953125,0.23388671875,0.0137939453125,-106.2774658203125,-52.7191162109375,-11.0321044921875
-0.7779541015625,0.22265625,0.031005859375,-86.17401123046875,-40.2374267578125,-5.34820556640625
-0.7841796875,0.19921875,0.043701171875,-63.4765625,-34.47723388671875,-2.6092529296875
-0.7752685546875,0.1854248046875,0.04248046875,-45.49407958984375,-33.30230712890625,-11.5966796875
-0.78125,0.195068359375,0.0391845703125,-36.30828857421875,-29.39605712890625,-29.79278564453125
-0.8028564453125,0.2166748046875,0.0322265625,-33.50830078125,-22.613525390625,-47.17254638671875
-0.82421875,0.2392578125,0.0289306640625,-28.55682373046875,-13.1378173828125,-58.7158203125
-0.8427734375,0.2576904296875,0.0311279296875,-19.9432373046875,-2.49481201171875,-64.3768310546875
-0.860595703125,0.269775390625,0.03759765625,-12.969970703125,8.30841064453125,-66.5740966796875
-0.88623046875,0.277099609375,0.0467529296875,-10.92529296875,17.88330078125,-68.12286376953125
-0.8890380859375,0.281494140625,0.0582275390625,-11.71112060546875,24.55902099609375,-71.5789794921875
-0.880126953125,0.281494140625,0.06884765625,-12.359619140625,27.22930908203125,-76.08795166015625
-0.8890380859375,0.2923583984375,0.2633056640625,3.12042236328125,18.890380859375,-80.14678955078125
-0.8800048828125,0.3162841796875,0.210205078125,73.5321044921875,-8.84246826171875,-80.2764892578125
-0.85595703125,0.5206298828125,0.4437255859375,72.15118408203125,-20.99609375,-79.4830322265625
-0.8504638671875,0.4427490234375,0.378173828125,-44.1436767578125,-20.66802978515625,-71.90704345703125
-0.8709716796875,0.3883056640625,0.2879638671875,-106.33087158203125,-16.88385009765625,-65.52886962890625
-0.91552734375,0.3651123046875,0.2154541015625,-64.81170654296875,-29.7698974609375,-59.1278076171875
-0.95166015625,0.368896484375,0.1572265625,2.5482177734375,-45.98236083984375,-52.94036865234375
-0.9903564453125,0.3853759765625,0.1212158203125,46.05865478515625,-52.001953125,-44.677734375
-1.017578125,0.3936767578125,0.0975341796875,38.12408447265625,-45.72296142578125,-34.5458984375
-1.046875,0.38818359375,0.08056640625,-5.096435546875,-31.70013427734375,-24.02496337890625
-1.0654296875,0.37158203125,0.074462890625,-42.99163818359375,-18.310546875,-13.5040283203125
-1.0587158203125,0.3541259765625,0.0736083984375,-46.98944091796875,-14.6942138671875,-3.39508056640625
-1.0252685546875,0.3348388671875,0.076171875,-20.40863037109375,-20.355224609375,7.8582763671875
-0.970458984375,0.31298828125,0.0770263671875,8.1024169921875,-29.54864501953125,18.1427001953125
-0.948974609375,0.30029296875,0.0723876953125,13.9923095703125,-35.91156005859375,24.48272705078125
-1.0035400390625,0.307861328125,0.05615234375,-7.3394775390625,-36.62109375,25.93994140625
-1.093994140625,0.322265625,0.0396728515625,-39.17694091796875,-31.158447265625,24.7955322265625
-1.166748046875,0.3402099609375,0.026611328125,-58.58612060546875,-23.9410400390625,23.590087890625
-1.17724609375,0.3377685546875,0.029541015625,-52.98614501953125,-18.98193359375,27.2216796875
-1.202392578125,0.347900390625,0.0316162109375,-33.5540771484375,-19.23370361328125,32.4249267578125
-1.2530517578125,0.354248046875,0.0260009765625,-19.134521484375,-20.263671875,40.3900146484375
-1.33544921875,0.379150390625,0.0201416015625,-19.561767578125,-16.96014404296875,45.7000732421875
-1.29443359375,0.3408203125,0.02099609375,-35.125732421875,-9.58251953125,50.57525634765625
-1.30810546875,0.0582275390625,0.281982421875,-48.65264892578125,-2.89154052734375,45.196533203125
-1.343994140625,-0.0345458984375,0.2998046875,247.76458740234375,-86.2579345703125,25.62713623046875
-1.25830078125,0.214111328125,0.9488525390625,249.99237060546875,-195.648193359375,18.5089111328125
-1.0775146484375,0.516845703125,1.1607666015625,249.99237060546875,-193.21441650390625,-6.61468505859375
-1.0712890625,0.5089111328125,1.1834716796875,83.892822265625,-132.2021484375,-9.27734375
-1.103515625,0.484375,0.852783203125,-192.169189453125,-89.202880859375,-3.71551513671875
-1.116943359375,0.42236328125,0.60986328125,-250.0,-59.600830078125,-1.09100341796875
-1.124755859375,0.358154296875,0.4385986328125,-250.0,-57.3577880859375,2.20489501953125
-1.1138916015625,0.3138427734375,0.3204345703125,-250.0,-83.6944580078125,11.444091796875
-1.08251953125,0.301025390625,0.2379150390625,-105.06439208984375,-121.87957763671875,24.1546630859375
-1.046875,0.3077392578125,0.1783447265625,22.91107177734375,-146.0418701171875,34.09576416015625
-1.0489501953125,0.33203125,0.123779296875,22.1710205078125,-141.44134521484375,36.62872314453125
-1.0289306640625,0.312744140625,0.0833740234375,-71.96807861328125,-111.358642578125,36.01837158203125
-1.029052734375,0.2974853515625,0.0609130859375,-158.843994140625,-78.05633544921875,31.27288818359375
-1.025146484375,0.2745361328125,0.050537109375,-165.47393798828125,-60.97412109375,32.40966796875
-1.0341796875,0.27197265625,0.0579833984375,-90.82794189453125,-61.69891357421875,36.9415283203125
-1.0284423828125,0.285888671875,0.0762939453125,-3.631591796875,-71.014404296875,42.144775390625
-1.0101318359375,0.2928466796875,0.07666015625,23.96392822265625,-80.718994140625,47.53875732421875
-0.9913330078125,0.2877197265625,0.072509765625,-16.74652099609375,-78.42254638671875,49.12567138671875
-0.9654541015625,0.26513671875,0.0770263671875,-85.4644775390625,-69.72503662109375,46.2799072265625
-0.9368896484375,0.2391357421875,0.081787109375,-130.5694580078125,-69.06890869140625,39.8406982421875
-0.92041015625,0.2314453125,0.0870361328125,-126.21307373046875,-81.76422119140625,31.8603515625
-0.919189453125,0.242919921875,0.0784912109375,-92.00286865234375,-103.72161865234375,26.42059326171875
-0.9234619140625,0.2593994140625,0.0679931640625,-67.169189453125,-122.15423583984375,24.49798583984375
-0.9241943359375,0.270751953125,0.0556640625,-77.4383544921875,-129.93621826171875,23.36883544921875
-0.9200439453125,0.271484375,0.0462646484375,-115.264892578125,-127.73895263671875,21.0418701171875
-0.9150390625,0.265625,0.0379638671875,-150.09307861328125,-123.0926513671875,17.46368408203125
-0.908203125,0.264404296875,0.0294189453125,-155.66253662109375,-122.21527099609375,14.62554931640625
-0.8966064453125,0.2657470703125,0.024658203125,-131.8359375,-123.809814453125,15.80810546875
-0.879150390625,0.268310546875,0.0233154296875,-103.12652587890625,-124.176025390625,19.500732421875
-0.8662109375,0.27001953125,0.021728515625,-94.4061279296875,-119.2626953125,23.56719970703125
-0.86083984375,0.2662353515625,0.0174560546875,-108.612060546875,-108.74176025390625,26.58843994140625
-0.858642578125,0.2578125,0.0177001953125,-126.67083740234375,-95.977783203125,27.83966064453125
-0.8699951171875,0.22412109375,0.1375732421875,-126.251220703125,-87.799072265625,27.44293212890625
-0.873779296875,0.2415771484375,0.164794921875,-107.42950439453125,-90.24810791015625,26.81732177734375
-0.8651123046875,0.2459716796875,0.11865234375,-119.97222900390625,-84.991455078125,27.40478515625
-0.84765625,0.2408447265625,0.0928955078125,-114.89105224609375,-77.7435302734375,29.9072265625
-0.83154296875,0.2388916015625,0.0804443359375,-100.2349853515625,-71.20513916015625,31.97479248046875
-0.8170166015625,0.2376708984375,0.074951171875,-90.30914306640625,-64.8956298828125,33.13446044921875
-0.80859375,0.24072265625,0.070556640625,-93.2769775390625,-58.013916015625,32.3944091796875
-0.8056640625,0.245849609375,0.0657958984375,-105.072021484375,-51.00250244140625,30.792236328125
-0.805419921875,0.25048828125,0.0645751953125,-114.75372314453125,-44.74639892578125,30.72357177734375
-0.8011474609375,0.25439453125,0.0634765625,-115.478515625,-41.32080078125,32.69195556640625
-0.7994384765625,0.2578125,0.0628662109375,-108.75701904296875,-40.68756103515625,36.81182861328125
-0.802978515625,0.2626953125,0.0594482421875,-102.3406982421875,-40.71807861328125,41.19110107421875
-0.8216552734375,0.2730712890625,0.052490234375,-102.34832763671875,-38.84124755859375,45.40252685546875
-0.853759765625,0.2841796875,0.046142578125,-109.619140625,-33.9202880859375,50.11749267578125
-0.900146484375,0.295654296875,0.043701171875,-119.6441650390625,-26.947021484375,55.633544921875
-0.951171875,0.310546875,0.0396728515625,-127.3345947265625,-20.843505859375,61.34796142578125
-1.002685546875,0.322265625,0.035888671875,-127.5787353515625,-16.30401611328125,68.206787109375
-1.0401611328125,0.3251953125,0.034423828125,-120.17059326171875,-12.39776611328125,76.19476318359375
-1.0760498046875,0.3323974609375,0.0347900390625,-111.01531982421875,-8.72039794921875,82.86285400390625
-1.099609375,0.335205078125,0.0361328125,-108.0322265625,-4.1656494140625,89.0655517578125
-1.114990234375,0.3304443359375,0.0367431640625,-111.1297607421875,0.51116943359375,95.37506103515625
-1.1290283203125,0.32275390625,0.038330078125,-114.23492431640625,4.3792724609375,99.9908447265625
-1.1524658203125,0.31982421875,0.042236328125,-113.04473876953125,6.64520263671875,101.87530517578125
-1.17138671875,0.3216552734375,0.0458984375,-109.42840576171875,6.75201416015625,101.4556884765625
-1.1768798828125,0.3270263671875,0.04833984375,-108.2000732421875,5.4168701171875,100.433349609375
-1.158203125,0.324951171875,0.0498046875,-112.08343505859375,3.84521484375,101.3031005859375
-1.1241455078125,0.3123779296875,0.049072265625,-119.01092529296875,2.02178955078125,103.91998291015625
-1.0821533203125,0.2960205078125,0.0496826171875,-123.5809326171875,0.3204345703125,106.63604736328125
-1.037109375,0.280517578125,0.048828125,-125.96893310546875,-1.28173828125,108.92486572265625
-0.9942626953125,0.264892578125,0.0487060546875,-128.96728515625,-2.0294189453125,110.7025146484375
-0.94970703125,0.2498779296875,0.0489501953125,-134.52911376953125,-1.5411376953125,111.45782470703125
-0.9119873046875,0.234130859375,0.050048828125,-142.9443359375,0.1068115234375,111.33575439453125
-0.8819580078125,0.22021484375,0.0528564453125,-151.5960693359375,1.6937255859375,109.76409912109375
-0.8685302734375,0.2135009765625,0.0552978515625,-158.18023681640625,2.26593017578125,106.6741943359375
-0.8758544921875,0.214599609375,0.0548095703125,-162.0025634765625,1.41143798828125,103.01971435546875
-0.90625,0.2222900390625,0.0511474609375,-163.96331787109375,-0.335693359375,99.4110107421875
-0.94677734375,0.232421875,0.0439453125,-165.18402099609375,-1.48773193359375,96.06170654296875
-0.9884033203125,0.2425537109375,0.039794921875,-163.59710693359375,-1.52587890625,93.1854248046875
-1.017333984375,0.2457275390625,0.033203125,-158.63037109375,-1.3885498046875,90.66009521484375
-1.044921875,0.2794189453125,0.12646484375,-168.22052001953125,0.9002685546875,87.60833740234375
-1.0794677734375,0.281982421875,0.1390380859375,-210.18218994140625,7.25555419921875,81.97784423828125
-1.1009521484375,0.2879638671875,0.1790771484375,-213.6688232421875,10.29205322265625,76.1260986328125
-1.1065673828125,0.2862548828125,0.202880859375,-194.51904296875,8.2550048828125,69.76318359375
-1.09375,0.2784423828125,0.204833984375,-158.0657958984375,3.13568115234375,62.47711181640625
-1.0618896484375,0.2681884765625,0.1890869140625,-119.354248046875,-0.54931640625,54.290771484375
-1.0211181640625,0.2584228515625,0.1610107421875,-88.52386474609375,-1.7242431640625,45.58563232421875
-0.9920654296875,0.2550048828125,0.1358642578125,-72.8912353515625,0.29754638671875,36.78131103515625
-0.9725341796875,0.2557373046875,0.11767578125,-75.592041015625,4.6539306640625,28.38134765625
-0.958251953125,0.25439453125,0.105224609375,-92.010498046875,10.1776123046875,21.270751953125
-0.9483642578125,0.25048828125,0.09765625,-108.1390380859375,14.190673828125,15.58685302734375
-0.9383544921875,0.2474365234375,0.0919189453125,-112.060546875,13.92364501953125,11.2457275390625
-0.9208984375,0.252197265625,0.1090087890625,-106.28509521484375,10.21575927734375,8.23974609375
-0.90185546875,0.2457275390625,0.092041015625,-107.46002197265625,6.53839111328125,5.77545166015625
-0.8863525390625,0.2431640625,0.0794677734375,-103.58428955078125,4.49371337890625,3.7078857421875
-0.8695068359375,0.241455078125,0.0693359375,-99.90692138671875,4.3182373046875,2.01416015625
-0.8558349609375,0.239990234375,0.0626220703125,-101.7608642578125,6.77490234375,0.31280517578125
-0.8480224609375,0.240478515625,0.0574951171875,-107.74993896484375,11.14654541015625,-1.251220703125
-0.8529052734375,0.2420654296875,0.054443359375,-112.31231689453125,16.05987548828125,-1.89971923828125
-0.870361328125,0.2454833984375,0.0513916015625,-111.1907958984375,20.20263671875,-1.6937255859375
-0.8878173828125,0.2591552734375,0.08056640625,-109.77935791015625,23.5137939453125,-0.9613037109375
-0.9078369140625,0.267578125,0.102294921875,-114.6240234375,26.9775390625,-0.58746337890625
-0.929443359375,0.267822265625,0.1036376953125,-115.08941650390625,28.40423583984375,-0.70953369140625
-0.9556884765625,0.281494140625,0.12158203125,-111.97662353515625,28.86199951171875,-1.36566162109375
-0.9791259765625,0.289306640625,0.1248779296875,-105.7891845703125,27.6947021484375,-1.52587890625
-1.001708984375,0.296875,0.1236572265625,-96.94671630859375,26.57318115234375,-1.3885498046875
-1.0164794921875,0.30224609375,0.1195068359375,-88.3026123046875,25.70343017578125,-0.81634521484375
-1.0279541015625,0.3013916015625,0.10888671875,-81.58111572265625,26.06201171875,-0.03814697265625
-1.0330810546875,0.301025390625,0.10498046875,-77.6519775390625,27.8167724609375,0.19073486328125
-1.0330810546875,0.298095703125,0.10009765625,-75.99639892578125,30.18951416015625,-0.05340576171875
-1.0328369140625,0.2962646484375,0.1005859375,-74.432373046875,32.35626220703125,-0.67901611328125
-1.0264892578125,0.2923583984375,0.1029052734375,-72.92938232421875,33.69140625,-1.28936767578125
-1.01220703125,0.2869873046875,0.1104736328125,-69.64874267578125,33.82110595703125,-2.5482177734375
-1.0003662109375,0.279296875,0.115478515625,-67.138671875,32.135009765625,-3.631591796875
-1.00732421875,0.281005859375,0.1160888671875,-62.9425048828125,29.48760986328125,-6.89697265625
-1.0020751953125,0.280517578125,0.11474609375,-60.26458740234375,25.3143310546875,-9.521484375
-0.9859619140625,0.279296875,0.1212158203125,-60.302734375,21.8505859375,-11.749267578125
-0.9991455078125,0.2825927734375,0.3367919921875,-69.183349609375,18.85986328125,-13.9312744140625
-1.067138671875,0.22216796875,1.0050048828125,-158.66851806640625,14.6484375,-19.0887451171875
-1.05517578125,0.16748046875,0.9510498046875,-168.7164306640625,-21.97265625,-23.84185791015625
-1.01806640625,0.1611328125,0.77734375,-52.60467529296875,-71.8994140625,-19.5159912109375
-1.0130615234375,0.186279296875,0.654541015625,57.38067626953125,-76.28631591796875,-12.63427734375
-0.995849609375,0.2305908203125,0.50439453125,60.089111328125,-57.53326416015625,-17.1966552734375
-0.9920654296875,0.246337890625,0.3880615234375,-36.67449951171875,-29.94537353515625,-24.2156982421875
-0.9986572265625,0.239990234375,0.298583984375,-139.0380859375,-6.05010986328125,-30.76171875
-0.9920654296875,0.22314453125,0.2381591796875,-162.4298095703125,0.54168701171875,-34.1033935546875
-0.982666015625,0.21826171875,0.1944580078125,-97.22137451171875,-14.312744140625,-34.2559814453125
-0.976806640625,0.23583984375,0.1591796875,-4.78363037109375,-37.994384765625,-34.35516357421875
-0.971923828125,0.259033203125,0.1285400390625,39.6881103515625,-53.131103515625,-35.89630126953125
-0.970458984375,0.27392578125,0.099853515625,7.5225830078125,-50.14801025390625,-39.97039794921875
-0.975341796875,0.2725830078125,0.07763671875,-67.81768798828125,-33.28704833984375,-45.5780029296875
-0.987548828125,0.26123046875,0.0654296875,-122.77984619140625,-16.47186279296875,-50.4150390625
-0.9984130859375,0.2523193359375,0.0643310546875,-119.0185546875,-10.9710693359375,-53.61175537109375
-1.006103515625,0.2569580078125,0.0657958984375,-68.48907470703125,-17.64678955078125,-55.6488037109375
-1.007568359375,0.307861328125,0.2362060546875,-20.04241943359375,-27.77862548828125,-57.7392578125
-1.00927734375,0.291259765625,0.1602783203125,-70.19805908203125,-28.06854248046875,-61.7828369140625
-1.0384521484375,0.282958984375,0.1275634765625,-105.18646240234375,-21.2554931640625,-66.925048828125
-1.08251953125,0.2896728515625,0.1085205078125,-76.8890380859375,-25.9857177734375,-69.6868896484375
-1.1207275390625,0.310791015625,0.09765625,-21.08001708984375,-39.00909423828125,-70.4803466796875
-1.1436767578125,0.333740234375,0.088134765625,12.70294189453125,-50.78887939453125,-70.00732421875
-1.1639404296875,0.345458984375,0.0755615234375,0.22125244140625,-54.37469482421875,-68.9697265625
-1.183837890625,0.3428955078125,0.0626220703125,-41.95404052734375,-50.35400390625,-69.8394775390625
-1.21728515625,0.338134765625,0.0535888671875,-73.5015869140625,-46.15020751953125,-72.6776123046875
-1.2353515625,0.3370361328125,0.04931640625,-69.427490234375,-47.6837158203125,-75.4241943359375
-1.2335205078125,0.338134765625,0.056884765625,-37.80364990234375,-54.20684814453125,-77.117919921875
-1.220947265625,0.359375,0.1307373046875,-23.4527587890625,-65.48309326171875,-78.97186279296875
-1.205810546875,0.351318359375,0.1004638671875,-41.41998291015625,-70.13702392578125,-84.26666259765625
-1.1788330078125,0.347412109375,0.0830078125,-47.66082763671875,-71.4874267578125,-89.4622802734375
-1.173583984375,0.3499755859375,0.0716552734375,-44.10552978515625,-74.066162109375,-92.32330322265625
-1.14404296875,0.3458251953125,0.0645751953125,-38.47503662109375,-76.690673828125,-93.109130859375
-1.1068115234375,0.3409423828125,0.0626220703125,-33.6151123046875,-78.5675048828125,-92.78106689453125
-1.077392578125,0.3394775390625,0.063720703125,-31.1737060546875,-80.60455322265625,-90.76690673828125
-1.051513671875,0.33642578125,0.0631103515625,-30.92193603515625,-83.465576171875,-87.005615234375
-1.0257568359375,0.3319091796875,0.0611572265625,-31.59332275390625,-86.3800048828125,-82.2296142578125
-0.97119140625,0.3179931640625,0.05517578125,-32.318115234375,-89.11895751953125,-77.1636962890625
-0.89794921875,0.3123779296875,0.0924072265625,-31.06689453125,-90.576171875,-72.16644287109375
-0.8446044921875,0.2957763671875,0.086181640625,-30.99822998046875,-91.6595458984375,-64.971923828125
-0.8070068359375,0.291015625,0.0966796875,-28.1524658203125,-93.994140625,-57.16705322265625
-0.78369140625,0.2882080078125,0.1014404296875,-27.62603759765625,-96.45843505859375,-49.2706298828125
-0.76171875,0.2872314453125,0.0948486328125,-31.097412109375,-98.74725341796875,-40.84014892578125
-0.7391357421875,0.2840576171875,0.0887451171875,-36.44561767578125,-99.8992919921875,-30.670166015625
-0.72216796875,0.27685546875,0.0826416015625,-39.37530517578125,-100.53253173828125,-18.6767578125
-0.72412109375,0.2742919921875,0.072998046875,-38.87176513671875,-101.4556884765625,-5.79833984375
-0.728271484375,0.261474609375,0.0625,-37.9486083984375,-102.0660400390625,6.591796875
-0.738037109375,0.268798828125,0.061279296875,-36.468505859375,-100.45623779296875,13.824462890625
-0.7645263671875,0.276123046875,0.055419921875,-37.78076171875,-96.77886962890625,23.10943603515625
-0.7989501953125,0.2791748046875,0.0643310546875,-40.2984619140625,-93.3685302734375,34.5001220703125
-0.8380126953125,0.280517578125,0.07080078125,-44.85321044921875,-92.6971435546875,44.74639892578125
-0.878173828125,0.2835693359375,0.07763671875,-49.774169921875,-93.5516357421875,53.619384765625
-0.919189453125,0.286865234375,0.08740234375,-52.3834228515625,-95.5047607421875,62.2100830078125
-0.9573974609375,0.2882080078125,0.09521484375,-53.680419921875,-96.6033935546875,70.953369140625
-0.995361328125,0.2880859375,0.0958251953125,-55.3741455078125,-96.1456298828125,78.52935791015625
-1.019775390625,0.2877197265625,0.09716796875,-55.9539794921875,-96.54998779296875,84.20562744140625
-1.0303955078125,0.2857666015625,0.0909423828125,-58.2275390625,-97.99957275390625,88.7603759765625
-1.0296630859375,0.2811279296875,0.09130859375,-62.96539306640625,-98.96087646484375,92.681884765625
-1.0233154296875,0.273681640625,0.0831298828125,-68.6492919921875,-100.30364990234375,95.98541259765625
-1.013671875,0.265869140625,0.0811767578125,-71.6705322265625,-102.6153564453125,98.358154296875
-1.0009765625,0.2578125,0.072509765625,-71.52557373046875,-105.1177978515625,100.42572021484375
-0.9866943359375,0.2510986328125,0.07177734375,-68.01605224609375,-107.147216796875,101.7303466796875
-0.9716796875,0.244384765625,0.0693359375,-65.7806396484375,-107.4066162109375,102.69927978515625
-0.96044921875,0.23681640625,0.0706787109375,-65.89508056640625,-105.01861572265625,103.1951904296875
-0.955078125,0.2296142578125,0.06591796875,-68.2525634765625,-99.8992919921875,103.1494140625
-0.9449462890625,0.2225341796875,0.0748291015625,-67.81005859375,-93.14727783203125,102.5848388671875
-0.9356689453125,0.21044921875,0.0809326171875,-64.81170654296875,-87.890625,101.86004638671875
-0.927490234375,0.2073974609375,0.083251953125,-58.4716796875,-82.8399658203125,99.80010986328125
-0.92041015625,0.202392578125,0.08740234375,-50.8880615234375,-78.0029296875,97.78594970703125
-0.915283203125,0.2008056640625,0.088623046875,-44.1741943359375,-72.6318359375,95.08514404296875
-0.906494140625,0.2008056640625,0.088134765625,-39.85595703125,-67.03948974609375,92.1630859375
-0.9063720703125,0.2027587890625,0.080810546875,-37.322998046875,-61.6607666015625,89.3707275390625
-0.908203125,0.2059326171875,0.077880859375,-34.79766845703125,-56.3507080078125,86.517333984375
-0.906005859375,0.2059326171875,0.07470703125,-31.9976806640625,-51.15509033203125,83.8470458984375
-0.9017333984375,0.20703125,0.0733642578125,-29.07562255859375,-46.16546630859375,80.9783935546875
-0.899658203125,0.2098388671875,0.0706787109375,-27.12249755859375,-41.229248046875,77.69775390625
-0.8995361328125,0.2132568359375,0.0716552734375,-26.02386474609375,-36.27777099609375,74.63836669921875
-0.904541015625,0.215576171875,0.0755615234375,-25.09307861328125,-31.76116943359375,71.929931640625
-0.9091796875,0.2183837890625,0.07763671875,-23.42987060546875,-27.6641845703125,68.5272216796875
-0.913818359375,0.2216796875,0.07861328125,-21.38519287109375,-24.46746826171875,64.96429443359375
-0.9168701171875,0.2230224609375,0.077880859375,-19.1802978515625,-21.93450927734375,61.4166259765625
-0.91796875,0.224609375,0.0810546875,-16.51763916015625,-19.7906494140625,57.43408203125
-0.9268798828125,0.2298583984375,0.0811767578125,-14.44244384765625,-18.00537109375,53.253173828125
-0.9322509765625,0.2353515625,0.0830078125,-13.031005859375,-16.448974609375,49.1180419921875
-0.93017578125,0.2373046875,0.08056640625,-12.77923583984375,-15.11383056640625,45.34149169921875
-0.920654296875,0.237060546875,0.0789794921875,-12.939453125,-13.9617919921875,41.70989990234375
-0.9150390625,0.239013671875,0.0802001953125,-14.129638671875,-13.3514404296875,38.5589599609375
-0.9212646484375,0.244140625,0.08251953125,-16.4794921875,-12.939453125,35.92681884765625
-0.936767578125,0.2493896484375,0.0848388671875,-18.77593994140625,-12.73345947265625,33.97369384765625
-0.955810546875,0.255615234375,0.088623046875,-21.0113525390625,-13.22174072265625,32.18841552734375
-0.9754638671875,0.26171875,0.0909423828125,-22.97210693359375,-14.39666748046875,30.7464599609375
-0.9931640625,0.267822265625,0.0928955078125,-24.25384521484375,-16.0675048828125,29.59442138671875
-1.0118408203125,0.276123046875,0.0916748046875,-25.55084228515625,-17.29583740234375,28.48052978515625
-1.0281982421875,0.288330078125,0.094482421875,-27.77099609375,-17.78411865234375,27.70233154296875
-1.0445556640625,0.29296875,0.0936279296875,-32.04345703125,-17.578125,27.74810791015625
-1.076171875,0.3017578125,0.097412109375,-38.84124755859375,-16.42608642578125,28.54156494140625
-1.1085205078125,0.306640625,0.1024169921875,-45.7916259765625,-14.85443115234375,29.38079833984375
-1.1220703125,0.3046875,0.0887451171875,-50.08697509765625,-12.939453125,30.38787841796875
-1.103515625,0.3310546875,0.21728515625,-51.27716064453125,-11.199951171875,31.55517578125
-1.10888671875,0.630859375,0.5606689453125,-67.57354736328125,-11.29913330078125,33.04290771484375
-1.056396484375,0.9901123046875,0.5477294921875,-198.87542724609375,-1.6937255859375,46.4935302734375
-1.0850830078125,0.8009033203125,0.59423828125,-229.55322265625,-16.6778564453125,81.84051513671875
-1.111083984375,0.74755859375,0.7384033203125,-239.56298828125,-20.8892822265625,92.6971435546875
-1.2088623046875,0.6092529296875,1.187744140625,-250.0,-22.0489501953125,91.20941162109375
-1.1920166015625,0.4085693359375,1.1121826171875,-250.0,-47.119140625,84.0301513671875
-1.1300048828125,0.3310546875,1.107421875,-216.6595458984375,-97.4884033203125,78.59039306640625
-1.0369873046875,0.2593994140625,0.7901611328125,-67.71087646484375,-142.75360107421875,72.16644287109375
-0.93310546875,0.2607421875,0.765380859375,78.1402587890625,-166.13006591796875,65.31524658203125
-0.881103515625,0.247802734375,0.5872802734375,105.0262451171875,-161.32354736328125,54.412841796875
-0.8590087890625,0.2445068359375,0.40234375,69.3817138671875,-126.5106201171875,41.259765625
-0.8721923828125,0.24560546875,0.2940673828125,26.46636962890625,-78.643798828125,30.96771240234375
-0.90478515625,0.2301025390625,0.4503173828125,-15.8233642578125,-28.61785888671875,23.93341064453125
-0.9527587890625,0.2154541015625,0.3226318359375,-79.010009765625,6.988525390625,16.357421875
-1.0111083984375,0.2105712890625,0.24853515625,-42.3126220703125,24.4903564453125,10.19287109375
-1.050537109375,0.230712890625,0.2025146484375,60.84442138671875,23.3612060546875,-0.51116943359375
-1.06640625,0.2633056640625,0.1728515625,136.48223876953125,18.585205078125,-17.76885986328125
-1.0615234375,0.29150390625,0.14794921875,131.2713623046875,22.6898193359375,-38.177490234375
-1.04248046875,0.300537109375,0.1259765625,60.60791015625,37.353515625,-56.29730224609375
-1.0067138671875,0.289794921875,0.1124267578125,-15.96832275390625,53.8330078125,-68.85528564453125
-0.9630126953125,0.27197265625,0.10888671875,-45.654296875,60.9130859375,-75.55389404296875
-0.9168701171875,0.2625732421875,0.1116943359375,-19.27947998046875,53.09295654296875,-78.2928466796875
-0.8720703125,0.2667236328125,0.115478515625,30.09796142578125,35.17913818359375,-78.45306396484375
-0.82177734375,0.2735595703125,0.115478515625,58.5784912109375,17.17376708984375,-76.57623291015625
-0.7763671875,0.27392578125,0.11181640625,46.3714599609375,5.94329833984375,-72.906494140625
-0.7381591796875,0.262939453125,0.1085205078125,8.0718994140625,0.81634521484375,-68.0084228515625
-0.7073974609375,0.24365234375,0.1053466796875,-25.10833740234375,-4.11224365234375,-62.61444091796875
-0.6866455078125,0.2303466796875,0.1053466796875,-30.58624267578125,-14.13726806640625,-57.28912353515625
-0.6773681640625,0.224609375,0.10302734375,-10.53619384765625,-29.94537353515625,-51.20849609375
-0.6806640625,0.229248046875,0.0975341796875,14.251708984375,-47.06573486328125,-45.26519775390625
-0.6951904296875,0.238037109375,0.0888671875,22.9339599609375,-59.50927734375,-40.252685546875
-0.71630859375,0.24658203125,0.0809326171875,9.94110107421875,-64.76593017578125,-36.65924072265625
-0.731689453125,0.2470703125,0.07861328125,-14.2822265625,-65.3076171875,-33.50830078125
-0.748291015625,0.245849609375,0.0792236328125,-31.707763671875,-67.3980712890625,-30.38787841796875
-0.7738037109375,0.2501220703125,0.080810546875,-30.426025390625,-74.71466064453125,-26.72576904296875
-0.8056640625,0.2598876953125,0.0797119140625,-14.5416259765625,-86.4105224609375,-21.35467529296875
-0.838134765625,0.271240234375,0.0770263671875,0.05340576171875,-98.65570068359375,-14.96124267578125
-0.8648681640625,0.2786865234375,0.072265625,-0.78582763671875,-108.001708984375,-8.79669189453125
-0.8851318359375,0.279296875,0.06689453125,-18.00537109375,-113.62457275390625,-3.68499755859375
-0.9024658203125,0.2738037109375,0.0606689453125,-39.4439697265625,-117.59185791015625,-0.17547607421875
-0.9144287109375,0.26611328125,0.054931640625,-50.8880615234375,-122.36785888671875,2.14385986328125
-0.9173583984375,0.257568359375,0.0484619140625,-47.61505126953125,-128.59344482421875,3.51715087890625
-0.9136962890625,0.2508544921875,0.0423583984375,-36.2396240234375,-135.13946533203125,3.84521484375
-0.9019775390625,0.2432861328125,0.034912109375,-27.435302734375,-139.44244384765625,2.81524658203125
-0.882080078125,0.23291015625,0.0260009765625,-26.458740234375,-139.2669677734375,0.12969970703125
-0.857666015625,0.2188720703125,0.0174560546875,-29.8309326171875,-134.3536376953125,-4.486083984375
-0.843994140625,0.20947265625,0.010009765625,-29.3121337890625,-126.54876708984375,-11.444091796875
-0.8455810546875,0.20654296875,0.003173828125,-20.65277099609375,-117.1722412109375,-20.050048828125
-0.8519287109375,0.2103271484375,-0.0035400390625,-5.37109375,-106.01043701171875,-29.56390380859375
-0.858642578125,0.2181396484375,-0.0079345703125,11.78741455078125,-92.18597412109375,-38.818359375
-0.877197265625,0.2296142578125,-0.0101318359375,26.77154541015625,-75.53863525390625,-47.21832275390625
-0.914794921875,0.2464599609375,-0.0103759765625,38.61236572265625,-56.78558349609375,-54.87060546875
-0.9713134765625,0.2685546875,-0.0106201171875,49.00360107421875,-36.7584228515625,-61.37847900390625
-1.021728515625,0.2891845703125,-0.0081787109375,60.089111328125,-16.39556884765625,-66.82586669921875
-1.0546875,0.3043212890625,-0.0010986328125,72.4639892578125,3.265380859375,-70.85418701171875
-1.081787109375,0.3193359375,0.007568359375,84.29718017578125,21.06475830078125,-73.79913330078125
-1.11181640625,0.333984375,0.0159912109375,92.1173095703125,36.78131103515625,-75.1953125
-1.14208984375,0.344970703125,0.026123046875,94.55108642578125,50.7354736328125,-75.5767822265625
-1.1900634765625,0.358154296875,0.036865234375,93.3990478515625,61.66839599609375,-75.6378173828125
-1.2738037109375,0.383056640625,0.043701171875,91.74346923828125,67.6422119140625,-76.13372802734375
-1.377685546875,0.414794921875,0.0487060546875,90.47698974609375,68.42803955078125,-75.7904052734375
-1.4407958984375,0.4375,0.055419921875,89.57672119140625,64.4989013671875,-73.69232177734375
-1.4046630859375,0.534423828125,0.3314208984375,67.11578369140625,57.89947509765625,-67.86346435546875
-1.3438720703125,0.446533203125,0.2257080078125,-59.25750732421875,56.7474365234375,-59.45587158203125
-1.3021240234375,0.455810546875,0.4124755859375,-53.93218994140625,45.1507568359375,-50.567626953125
-1.293212890625,0.437744140625,0.399658203125,-7.25555419921875,12.35198974609375,-39.3218994140625
-1.2525634765625,0.4100341796875,0.369384765625,56.52618408203125,-18.646240234375,-31.01348876953125
-1.1925048828125,0.376708984375,0.306884765625,111.67144775390625,-43.58673095703125,-30.15899658203125
-1.126708984375,0.347900390625,0.2401123046875,145.71380615234375,-59.12017822265625,-35.491943359375
-1.0762939453125,0.340576171875,0.18798828125,151.48162841796875,-64.910888671875,-44.99053955078125
-1.045654296875,0.345458984375,0.15234375,124.99237060546875,-62.49237060546875,-53.10821533203125
-1.0196533203125,0.34130859375,0.128662109375,81.55059814453125,-56.427001953125,-55.0689697265625
-0.992431640625,0.325439453125,0.1131591796875,50.54473876953125,-52.67333984375,-51.26190185546875
-0.9683837890625,0.3033447265625,0.1019287109375,48.82049560546875,-55.755615234375,-44.63958740234375
-1.02978515625,0.35107421875,0.8956298828125,57.708740234375,-71.00677490234375,-39.093017578125
-1.0235595703125,0.3194580078125,1.0296630859375,8.5296630859375,-117.95806884765625,-34.5306396484375
-1.0252685546875,0.2877197265625,0.7923583984375,-9.95635986328125,-154.2816162109375,-35.51483154296875
-0.9971923828125,0.284423828125,0.69287109375,20.5535888671875,-176.52130126953125,-38.14697265625
-0.945068359375,0.2896728515625,0.66650390625,44.37255859375,-189.64385986328125,-36.468505859375
-0.879638671875,0.2828369140625,0.5087890625,41.67938232421875,-187.72125244140625,-32.47833251953125
-0.8284912109375,0.265380859375,0.363037109375,29.60205078125,-173.248291015625,-26.91650390625
-0.799072265625,0.2490234375,0.2637939453125,18.49365234375,-153.411865234375,-20.97320556640625
-0.7911376953125,0.2523193359375,0.348388671875,18.463134765625,-133.97979736328125,-15.46478271484375
-0.7884521484375,0.2542724609375,0.419189453125,46.18072509765625,-128.2958984375,-10.16998291015625
-0.7720947265625,0.2562255859375,0.429931640625,84.80072021484375,-130.3253173828125,-6.82830810546875
-0.740478515625,0.253173828125,0.40087890625,95.40557861328125,-129.31060791015625,-7.17926025390625
-0.7095947265625,0.2459716796875,0.3480224609375,65.20843505859375,-119.78912353515625,-10.41412353515625
-0.6812744140625,0.23291015625,0.31982421875,21.392822265625,-105.90362548828125,-13.96942138671875
-0.66064453125,0.21533203125,0.2860107421875,5.1727294921875,-97.1221923828125,-15.49530029296875
-0.6544189453125,0.2177734375,0.3255615234375,22.86529541015625,-97.564697265625,-15.2435302734375
-0.6563720703125,0.217041015625,0.28076171875,36.27777099609375,-99.029541015625,-14.93072509765625
-0.6787109375,0.2174072265625,0.24365234375,38.6505126953125,-94.04754638671875,-15.52581787109375
-0.7012939453125,0.2169189453125,0.2198486328125,33.47015380859375,-83.93096923828125,-15.98358154296875
-0.72265625,0.2186279296875,0.2086181640625,28.778076171875,-72.60894775390625,-15.38848876953125
-0.7474365234375,0.2203369140625,0.20556640625,31.86798095703125,-63.08746337890625,-13.09967041015625
-0.7667236328125,0.2244873046875,0.1812744140625,48.01177978515625,-56.87713623046875,-8.76617431640625
-0.7947998046875,0.239990234375,0.1439208984375,73.90594482421875,-52.52838134765625,-2.96783447265625
-0.8275146484375,0.25146484375,0.115234375,86.36474609375,-45.99761962890625,3.509521484375
-0.851806640625,0.2562255859375,0.098388671875,77.606201171875,-34.2864990234375,7.91168212890625
-0.8863525390625,0.25830078125,0.0914306640625,57.9986572265625,-21.03424072265625,10.16998291015625
-0.929931640625,0.255126953125,0.091552734375,45.81451416015625,-13.32855224609375,11.505126953125
-0.9520263671875,0.245849609375,0.091796875,53.44390869140625,-14.5416259765625,10.82611083984375
-0.93603515625,0.2333984375,0.095947265625,72.6470947265625,-21.52252197265625,5.24139404296875
-0.9007568359375,0.2296142578125,0.1082763671875,82.38983154296875,-30.45654296875,-6.05010986328125
-0.864013671875,0.234619140625,0.1085205078125,67.9931640625,-41.32080078125,-19.99664306640625
-0.833984375,0.2381591796875,0.0987548828125,38.482666015625,-51.1627197265625,-31.951904296875
-0.809326171875,0.24267578125,0.0863037109375,14.58740234375,-59.47113037109375,-39.98565673828125
-0.786376953125,0.2452392578125,0.0748291015625,6.35528564453125,-66.94793701171875,-43.57147216796875
-0.76904296875,0.2518310546875,0.068359375,9.8114013671875,-72.97515869140625,-44.10552978515625
-0.7537841796875,0.2603759765625,0.06103515625,11.5814208984375,-76.324462890625,-42.05322265625
-0.7412109375,0.2703857421875,0.0537109375,3.41796875,-74.9359130859375,-37.7044677734375
-0.734130859375,0.277099609375,0.047119140625,-12.94708251953125,-69.29779052734375,-29.88433837890625
-0.7535400390625,0.2877197265625,0.0401611328125,-26.13067626953125,-62.01171875,-18.2342529296875
-0.828857421875,0.3138427734375,0.029052734375,-25.4058837890625,-55.4962158203125,-1.6326904296875
-0.9031982421875,0.33349609375,0.01904296875,-9.5672607421875,-48.91204833984375,22.37701416015625
-0.936767578125,0.32275390625,0.018310546875,3.70025634765625,-38.45977783203125,50.1556396484375
-0.9732666015625,0.300048828125,0.017578125,-0.81634521484375,-23.97918701171875,70.5413818359375
-1.0357666015625,0.29052734375,0.015869140625,-15.09857177734375,-7.34710693359375,78.17840576171875
-1.126220703125,0.2978515625,0.0189208984375,-19.11163330078125,7.27081298828125,77.56805419921875
-1.2061767578125,0.312255859375,0.023193359375,-3.7994384765625,16.387939453125,74.89776611328125
-1.282958984375,0.3642578125,0.956298828125,84.96856689453125,-46.18072509765625,81.3446044921875
-1.2880859375,0.5440673828125,1.350830078125,-108.86383056640625,-116.46270751953125,89.1571044921875
-1.2918701171875,0.42236328125,1.186767578125,-250.0,-139.312744140625,85.8154296875
-1.2279052734375,0.3662109375,1.139892578125,-223.38104248046875,-165.2069091796875,77.15606689453125
-1.10986328125,0.2978515625,0.8275146484375,-107.818603515625,-183.41064453125,67.03948974609375
-0.96044921875,0.25537109375,0.6121826171875,-15.51055908203125,-181.87713623046875,51.544189453125
-0.8912353515625,0.21826171875,0.4290771484375,2.43377685546875,-170.5322265625,31.34918212890625
-0.881591796875,0.2391357421875,0.2801513671875,-26.52740478515625,-139.0380859375,-2.51007080078125
-0.8677978515625,0.237548828125,0.2232666015625,-58.78448486328125,-84.65576171875,-27.77862548828125
-0.839111328125,0.2762451171875,0.353515625,-58.2733154296875,-49.84283447265625,-44.30389404296875
-0.8497314453125,0.2470703125,0.2989501953125,-53.19976806640625,-31.25762939453125,-48.40850830078125
-0.874755859375,0.2554931640625,0.25439453125,-10.8795166015625,-14.2822265625,-45.6085205078125
-0.9342041015625,0.2877197265625,0.24462890625,64.117431640625,-5.584716796875,-36.834716796875
-1.00537109375,0.3192138671875,0.169189453125,109.9853515625,11.566162109375,-30.517578125
-1.102294921875,0.360107421875,0.1229248046875,118.927001953125,43.3502197265625,-26.0162353515625
-1.190185546875,0.38818359375,0.1060791015625,107.666015625,80.0628662109375,-17.31109619140625
-1.233642578125,0.3968505859375,0.1153564453125,91.7205810546875,108.68072509765625,-3.44085693359375
-1.2183837890625,0.385009765625,0.13671875,80.92498779296875,118.194580078125,13.72528076171875
-1.1641845703125,0.361328125,0.1556396484375,75.775146484375,106.01043701171875,30.93719482421875
-1.10205078125,0.3360595703125,0.1619873046875,68.53485107421875,79.0252685546875,45.166015625
-1.032470703125,0.308349609375,0.1624755859375,53.9093017578125,46.8292236328125,55.5267333984375
-0.96533203125,0.2806396484375,0.1573486328125,29.35028076171875,13.763427734375,61.71417236328125
-0.916259765625,0.2559814453125,0.1453857421875,-3.77655029296875,-17.333984375,63.65966796875
-0.9063720703125,0.2423095703125,0.130615234375,-38.7115478515625,-45.24993896484375,61.248779296875
-0.9134521484375,0.2359619140625,0.1160888671875,-69.17572021484375,-70.67108154296875,54.962158203125
-0.9324951171875,0.2388916015625,0.1019287109375,-90.59906005859375,-95.1080322265625,46.11968994140625
-0.92724609375,0.2401123046875,0.0863037109375,-105.97991943359375,-117.9962158203125,37.0025634765625
-0.9166259765625,0.239013671875,0.06884765625,-121.86431884765625,-137.07733154296875,28.28216552734375
-0.8992919921875,0.2403564453125,0.051513671875,-135.6201171875,-150.604248046875,18.94378662109375
-0.86572265625,0.2386474609375,0.036865234375,-142.0135498046875,-158.39385986328125,11.1083984375
-0.823486328125,0.2327880859375,0.0240478515625,-141.31927490234375,-161.44561767578125,6.256103515625
-0.786865234375,0.22802734375,0.012451171875,-135.3302001953125,-160.11810302734375,3.1585693359375
-0.750732421875,0.2275390625,0.0050048828125,-122.6043701171875,-154.5257568359375,2.105712890625
-0.7000732421875,0.2200927734375,0.0018310546875,-108.4136962890625,-144.79827880859375,4.99725341796875
-0.6480712890625,0.2083740234375,-0.001708984375,-96.893310546875,-132.354736328125,9.86480712890625
-0.6180419921875,0.2088623046875,-0.008056640625,-84.1217041015625,-118.1488037109375,15.73944091796875
-0.5975341796875,0.2059326171875,-0.016845703125,-66.53594970703125,-102.0050048828125,26.824951171875
-0.605712890625,0.1973876953125,-0.0281982421875,-47.3785400390625,-81.96258544921875,41.4886474609375
-0.617919921875,0.1822509765625,-0.0308837890625,-26.08489990234375,-55.51910400390625,53.558349609375
-0.62939453125,0.1688232421875,-0.021484375,-1.9378662109375,-25.70343017578125,60.455322265625
-0.65576171875,0.159423828125,-0.0103759765625,19.92034912109375,2.63214111328125,61.47003173828125
-0.6988525390625,0.1614990234375,0.0067138671875,36.68212890625,29.80804443359375,55.36651611328125
-0.7490234375,0.174560546875,0.0341796875,50.3082275390625,51.78070068359375,44.63958740234375
-0.8017578125,0.1885986328125,0.0548095703125,62.33978271484375,62.591552734375,34.1339111328125
-0.861572265625,0.205322265625,0.0648193359375,77.545166015625,63.59100341796875,24.25384521484375
-0.9144287109375,0.22119140625,0.068359375,95.9625244140625,59.19647216796875,14.6636962890625
-0.9549560546875,0.2357177734375,0.0699462890625,111.38153076171875,53.192138671875,4.26483154296875
-0.9522705078125,0.240234375,0.0731201171875,116.7449951171875,48.31695556640625,-7.37762451171875
-0.920654296875,0.234375,0.0814208984375,110.34393310546875,45.47119140625,-19.134521484375
-0.899169921875,0.2236328125,0.08642578125,95.68023681640625,42.61016845703125,-31.280517578125
-0.877685546875,0.2159423828125,0.0924072265625,84.15985107421875,38.12408447265625,-45.745849609375
-0.851806640625,0.2181396484375,0.1016845703125,83.8470458984375,30.303955078125,-61.0809326171875
-0.83740234375,0.23095703125,0.10986328125,91.10260009765625,17.5628662109375,-73.5015869140625
-0.8353271484375,0.2474365234375,0.11181640625,94.96307373046875,1.3580322265625,-80.56640625
-0.8597412109375,0.2633056640625,0.1036376953125,85.38818359375,-14.61029052734375,-84.12933349609375
-0.8985595703125,0.2821044921875,0.0911865234375,63.60626220703125,-26.9622802734375,-87.4481201171875
-0.944580078125,0.302001953125,0.0731201171875,40.2679443359375,-35.95733642578125,-88.72222900390625
-1.0137939453125,0.3280029296875,0.0526123046875,26.275634765625,-41.48101806640625,-86.29608154296875
-1.086669921875,0.3587646484375,0.0377197265625,20.16448974609375,-42.327880859375,-79.26177978515625
-1.1246337890625,0.3316650390625,-0.010986328125,9.36126708984375,-43.243408203125,-67.08526611328125
-1.1624755859375,0.3231201171875,-0.095458984375,26.51214599609375,-24.72686767578125,-69.4427490234375
-1.2659912109375,0.354248046875,-0.073974609375,79.94842529296875,41.2750244140625,-84.98382568359375
-1.3516845703125,0.4075927734375,-0.0347900390625,115.53192138671875,99.9298095703125,-104.9041748046875
-1.41748046875,0.458984375,0.332763671875,73.32611083984375,139.94598388671875,-113.83056640625
-1.528564453125,0.4268798828125,0.3284912109375,-92.193603515625,174.346923828125,-109.6649169921875
-1.5926513671875,0.384521484375,0.669189453125,-115.27252197265625,156.5704345703125,-96.29058837890625
-1.753173828125,0.39404296875,0.7884521484375,-82.83233642578125,168.487548828125,-92.2088623046875
-1.7003173828125,0.3763427734375,0.9329833984375,-39.4744873046875,171.4630126953125,-97.69439697265625
-1.593017578125,0.51171875,1.248291015625,-44.96002197265625,131.50787353515625,-95.611572265625
-1.5009765625,0.558837890625,1.314697265625,-59.4482421875,57.39593505859375,-81.207275390625
-1.4002685546875,0.54052734375,1.189697265625,17.486572265625,-20.08056640625,-65.28472900390625
-1.2882080078125,0.50146484375,1.027099609375,88.63067626953125,-84.15985107421875,-55.61065673828125
-1.20947265625,0.4725341796875,0.8052978515625,102.14996337890625,-117.12646484375,-48.6297607421875
-1.1192626953125,0.4322509765625,0.6143798828125,92.498779296875,-130.05828857421875,-33.39385986328125
-1.0677490234375,0.4041748046875,0.468505859375,82.2906494140625,-137.298583984375,-13.11492919921875
-1.0992431640625,0.3890380859375,0.380126953125,75.84381103515625,-147.52960205078125,12.18414306640625
-1.1341552734375,0.37158203125,0.3106689453125,59.63897705078125,-169.21234130859375,35.64453125
-1.1781005859375,0.35595703125,0.2457275390625,27.03857421875,-197.4639892578125,52.51312255859375
-1.2452392578125,0.351806640625,0.1796875,-16.11328125,-225.39520263671875,60.32562255859375
-1.3199462890625,0.3568115234375,0.115478515625,-57.5714111328125,-248.02398681640625,60.02044677734375
-1.3741455078125,0.36376953125,0.056396484375,-85.8306884765625,-250.0,55.36651611328125
-1.3941650390625,0.3646240234375,0.01025390625,-96.41265869140625,-250.0,50.45318603515625
-1.369384765625,0.3564453125,-0.020263671875,-93.56689453125,-250.0,46.59271240234375
-1.298828125,0.33447265625,-0.0361328125,-84.22088623046875,-232.84149169921875,43.87664794921875
-1.216552734375,0.3087158203125,-0.0377197265625,-72.4334716796875,-208.1146240234375,40.88592529296875
-1.15185546875,0.2890625,-0.03271484375,-60.93597412109375,-181.96868896484375,36.14044189453125
-1.0994873046875,0.2783203125,-0.0234375,-48.98834228515625,-157.32574462890625,30.029296875
-1.0430908203125,0.2708740234375,-0.010986328125,-34.73663330078125,-135.6964111328125,25.19989013671875
-0.9876708984375,0.2650146484375,0.0042724609375,-19.63043212890625,-117.79022216796875,23.2696533203125
-0.94140625,0.2589111328125,0.0201416015625,-6.4849853515625,-104.2022705078125,24.59716796875
-0.9000244140625,0.2484130859375,0.0367431640625,2.4566650390625,-94.7113037109375,28.228759765625
-0.8509521484375,0.2308349609375,0.051513671875,5.72967529296875,-90.11077880859375,32.09686279296875
-0.8011474609375,0.21044921875,0.0550537109375,4.3487548828125,-89.63775634765625,34.04998779296875
-0.751953125,0.1939697265625,0.0555419921875,1.129150390625,-89.3402099609375,32.66143798828125
-0.7154541015625,0.1865234375,0.05810546875,-3.387451171875,-87.77618408203125,29.35028076171875
-0.6982421875,0.1875,0.0625,-8.61358642578125,-85.99853515625,26.42059326171875
-0.687255859375,0.1871337890625,0.067138671875,-13.12255859375,-85.44921875,25.45166015625
-0.681396484375,0.186279296875,0.07080078125,-15.0299072265625,-87.15057373046875,26.092529296875
-0.6796875,0.1827392578125,0.0733642578125,-15.7928466796875,-90.8966064453125,27.587890625
-0.684326171875,0.1796875,0.0726318359375,-17.2882080078125,-95.2911376953125,28.17535400390625
-0.6961669921875,0.1788330078125,0.0692138671875,-21.67510986328125,-99.38812255859375,27.48870849609375
-0.7119140625,0.1817626953125,0.063232421875,-27.83966064453125,-102.691650390625,25.3753662109375
-0.7259521484375,0.1851806640625,0.054443359375,-32.06634521484375,-105.1788330078125,23.21624755859375
-0.7349853515625,0.187255859375,0.045654296875,-32.1197509765625,-106.4910888671875,21.72088623046875
-0.740234375,0.1883544921875,0.037109375,-29.1595458984375,-105.9722900390625,20.54595947265625
-0.7401123046875,0.1868896484375,0.028564453125,-26.42822265625,-102.6611328125,19.256591796875
-0.7371826171875,0.1854248046875,0.021728515625,-25.32958984375,-96.26007080078125,17.27294921875
-0.732666015625,0.183837890625,0.0177001953125,-24.51324462890625,-87.2650146484375,14.64080810546875
-0.72705078125,0.183349609375,0.014404296875,-21.636962890625,-76.85089111328125,11.9171142578125
-0.7222900390625,0.1844482421875,0.0152587890625,-15.99884033203125,-66.0247802734375,9.71221923828125
-0.7176513671875,0.1876220703125,0.017333984375,-9.42230224609375,-55.23681640625,8.29315185546875
-0.7059326171875,0.18896484375,0.02197265625,-4.486083984375,-44.45648193359375,7.6751708984375
-0.6922607421875,0.1878662109375,0.026611328125,-1.6632080078125,-33.88214111328125,7.71331787109375
-0.6883544921875,0.1884765625,0.029296875,0.99945068359375,-24.2156982421875,8.14056396484375
-0.68994140625,0.1900634765625,0.0313720703125,5.53131103515625,-15.51055908203125,8.99505615234375
-0.6973876953125,0.192138671875,0.0322265625,11.89422607421875,-7.72857666015625,10.13946533203125
-0.71630859375,0.1959228515625,0.02978515625,19.1802978515625,-0.11444091796875,11.199951171875
-0.7520751953125,0.2047119140625,0.0274658203125,26.34429931640625,8.12530517578125,11.71112060546875
-0.80859375,0.2174072265625,0.0240478515625,33.01239013671875,17.2119140625,11.53564453125
-0.882568359375,0.23681640625,0.022705078125,40.21453857421875,26.93939208984375,10.6048583984375
-0.968017578125,0.276123046875,0.0682373046875,31.71539306640625,38.23089599609375,9.71221923828125
-1.058349609375,0.3048095703125,0.104736328125,22.45330810546875,50.6134033203125,8.6212158203125
-1.1507568359375,0.321044921875,0.1083984375,34.0423583984375,57.53326416015625,8.6212158203125
-1.233642578125,0.3394775390625,0.1014404296875,56.488037109375,60.24932861328125,8.18634033203125
-1.29052734375,0.3551025390625,0.092529296875,82.54241943359375,61.1724853515625,7.7972412109375
-1.332275390625,0.364990234375,0.0809326171875,100.9979248046875,62.3321533203125,6.8817138671875
