accel_x,accel_y,accel_z,gyro_x,gyro_y,gyro_z
-1.0750732421875,-0.0404052734375,-0.1207275390625,12.39776611328125,27.1759033203125,-6.82830810546875
-1.0810546875,-0.039794921875,-0.11962890625,12.1612548828125,28.34320068359375,-6.75201416015625
-1.083251953125,-0.0416259765625,-0.115234375,12.19940185546875,30.40313720703125,-6.5460205078125
-1.0916748046875,-0.043212890625,-0.1099853515625,12.8631591796875,33.0963134765625,-6.27899169921875
-1.0977783203125,-0.046630859375,-0.10791015625,13.96942138671875,35.3546142578125,-5.62286376953125
-1.1011962890625,-0.049560546875,-0.1080322265625,14.83917236328125,37.20855712890625,-4.46319580078125
-1.117431640625,-0.0491943359375,-0.1021728515625,15.3656005859375,40.3594970703125,-2.99072265625
-1.1595458984375,-0.046142578125,-0.099365234375,16.8609619140625,43.93768310546875,-0.9613037109375
-1.2021484375,-0.0411376953125,-0.100830078125,20.0958251953125,46.5240478515625,0.84686279296875
-1.217041015625,-0.0377197265625,-0.103759765625,23.39935302734375,48.004150390625,1.77764892578125
-1.201171875,-0.03369140625,-0.101318359375,24.37591552734375,48.60687255859375,1.22833251953125
-1.18505859375,-0.03125,-0.0953369140625,22.49908447265625,48.28643798828125,-1.42669677734375
-1.169921875,-0.0330810546875,-0.078857421875,19.44732666015625,46.905517578125,-5.7830810546875
-1.1795654296875,-0.0548095703125,0.084228515625,17.5323486328125,40.22216796875,-10.040283203125
-1.1898193359375,-0.06982421875,0.18310546875,15.7012939453125,23.37646484375,-13.641357421875
-1.188720703125,-0.072998046875,0.1741943359375,16.65496826171875,3.45611572265625,-16.1895751953125
-1.17431640625,-0.06396484375,0.1201171875,22.66693115234375,-14.9383544921875,-16.59393310546875
-1.1514892578125,-0.056396484375,0.06201171875,34.3017578125,-31.7230224609375,-14.32037353515625
-1.1260986328125,-0.05126953125,0.004150390625,46.5087890625,-43.5791015625,-11.10076904296875
-1.1085205078125,-0.0440673828125,-0.0360107421875,51.24664306640625,-51.85699462890625,-9.62066650390625
-1.088134765625,-0.0423583984375,-0.0655517578125,43.2891845703125,-63.05694580078125,-9.5062255859375
-1.0655517578125,-0.0406494140625,-0.0889892578125,33.75244140625,-74.7833251953125,-8.8348388671875
-1.031005859375,-0.0396728515625,-0.107421875,27.7099609375,-82.25250244140625,-6.7138671875
-1.000732421875,-0.03955078125,-0.1181640625,24.04022216796875,-84.41925048828125,-4.26483154296875
-0.9700927734375,-0.0391845703125,-0.1258544921875,22.1099853515625,-83.55712890625,-0.8392333984375
-0.942138671875,-0.0404052734375,-0.1307373046875,21.32415771484375,-81.71844482421875,3.448486328125
-0.9207763671875,-0.041015625,-0.1363525390625,20.8892822265625,-79.6661376953125,7.8582763671875
-0.9046630859375,-0.0396728515625,-0.1396484375,19.7296142578125,-77.63671875,11.80267333984375
-0.8916015625,-0.039794921875,-0.142822265625,16.4031982421875,-75.927734375,14.9993896484375
-0.8819580078125,-0.0400390625,-0.1434326171875,11.2457275390625,-74.04327392578125,17.4560546875
-0.88037109375,-0.0400390625,-0.1400146484375,5.16510009765625,-71.83074951171875,19.47021484375
-0.8797607421875,-0.04150390625,-0.1357421875,-0.1220703125,-69.38934326171875,21.4080810546875
-0.884765625,-0.04248046875,-0.1302490234375,-2.98309326171875,-66.88690185546875,23.4527587890625
-0.896240234375,-0.041748046875,-0.1260986328125,-2.81524658203125,-64.483642578125,26.3214111328125
-0.9093017578125,-0.0404052734375,-0.1239013671875,-0.28228759765625,-62.68310546875,30.0445556640625
-0.9185791015625,-0.040283203125,-0.1268310546875,3.0670166015625,-61.36322021484375,34.576416015625
-0.9246826171875,-0.0416259765625,-0.1307373046875,5.4779052734375,-60.2264404296875,39.398193359375
-0.9263916015625,-0.044189453125,-0.1380615234375,6.09588623046875,-59.48638916015625,43.81561279296875
-0.91796875,-0.0489501953125,-0.1422119140625,4.14276123046875,-58.90655517578125,47.6837158203125
-0.916259765625,-0.054931640625,-0.1495361328125,-0.18310546875,-58.4869384765625,50.72784423828125
-0.9024658203125,-0.06494140625,-0.154296875,-6.30950927734375,-57.0526123046875,53.2684326171875
-0.8992919921875,-0.072998046875,-0.157470703125,-14.373779296875,-55.42755126953125,52.703857421875
-0.907958984375,-0.07666015625,-0.154541015625,-24.34539794921875,-54.72564697265625,50.0335693359375
-0.9129638671875,-0.080810546875,-0.154541015625,-35.53009033203125,-57.7392578125,46.417236328125
-0.90771484375,-0.0870361328125,-0.15380859375,-46.81396484375,-61.58447265625,42.21343994140625
-0.8931884765625,-0.0921630859375,-0.15380859375,-56.793212890625,-64.61334228515625,37.60528564453125
-0.8814697265625,-0.0975341796875,-0.1466064453125,-64.39208984375,-63.5986328125,32.3333740234375
-0.8797607421875,-0.096923828125,-0.1337890625,-68.8323974609375,-60.5926513671875,25.5889892578125
-0.8814697265625,-0.0936279296875,-0.1268310546875,-69.70977783203125,-59.85260009765625,18.79119873046875
-0.8785400390625,-0.0894775390625,-0.1314697265625,-68.10760498046875,-59.88311767578125,13.24462890625
-0.8773193359375,-0.0836181640625,-0.1324462890625,-65.31524658203125,-57.159423828125,8.76617431640625
-0.8677978515625,-0.0792236328125,-0.13232421875,-60.9130859375,-52.18505859375,6.67572021484375
-0.8582763671875,-0.075927734375,-0.1319580078125,-55.511474609375,-45.867919921875,6.04248046875
-0.852294921875,-0.071044921875,-0.1285400390625,-49.76654052734375,-38.5284423828125,7.232666015625
-0.8524169921875,-0.0633544921875,-0.104248046875,-43.8079833984375,-31.88323974609375,9.765625
-0.86767578125,-0.0604248046875,-0.063720703125,-37.65869140625,-28.00750732421875,12.94708251953125
-0.869384765625,-0.0579833984375,-0.0809326171875,-27.97698974609375,-23.53668212890625,16.51763916015625
-0.86962890625,-0.05615234375,-0.1048583984375,-22.20916748046875,-18.36395263671875,19.32525634765625
-0.871337890625,-0.056640625,-0.1297607421875,-22.4456787109375,-12.939453125,21.331787109375
-0.8768310546875,-0.057861328125,-0.1483154296875,-28.6407470703125,-6.78253173828125,22.491455078125
-0.8768310546875,-0.0594482421875,-0.1531982421875,-39.28375244140625,0.06103515625,22.97210693359375
-0.874755859375,-0.0631103515625,-0.15087890625,-51.8951416015625,6.6070556640625,22.6898193359375
-0.8743896484375,-0.06640625,-0.1385498046875,-64.1632080078125,12.07733154296875,22.3846435546875
-0.8753662109375,-0.0712890625,-0.12451171875,-73.2421875,16.3421630859375,22.62115478515625
-0.876220703125,-0.076416015625,-0.1123046875,-77.1942138671875,20.3094482421875,22.918701171875
-0.8800048828125,-0.080810546875,-0.1019287109375,-75.82855224609375,24.6124267578125,23.17047119140625
-0.891357421875,-0.0838623046875,-0.0960693359375,-69.83184814453125,28.43475341796875,23.712158203125
-0.9110107421875,-0.0845947265625,-0.0985107421875,-61.07330322265625,31.4788818359375,24.6124267578125
-0.9332275390625,-0.0831298828125,-0.10595703125,-51.6510009765625,34.1949462890625,25.93994140625
-0.9638671875,-0.0806884765625,-0.121337890625,-43.76220703125,36.376953125,27.10723876953125
-0.98828125,-0.0777587890625,-0.1370849609375,-39.25323486328125,38.726806640625,27.45819091796875
-1.0081787109375,-0.07470703125,-0.149169921875,-38.85650634765625,40.93170166015625,26.519775390625
-1.033203125,-0.06982421875,-0.16064453125,-42.388916015625,42.4346923828125,24.90234375
-1.042724609375,-0.06689453125,-0.163818359375,-48.57635498046875,44.21234130859375,23.68927001953125
-1.044921875,-0.0655517578125,-0.1590576171875,-55.87005615234375,46.0968017578125,22.16339111328125
-1.0775146484375,-0.0570068359375,-0.0228271484375,-62.56866455078125,46.3714599609375,20.7061767578125
-1.465576171875,-0.041259765625,1.4454345703125,-26.947021484375,-1.1138916015625,29.754638671875
-1.5330810546875,-0.116455078125,1.286865234375,157.5469970703125,-105.40008544921875,67.6422119140625
-1.4683837890625,0.0330810546875,0.9901123046875,249.99237060546875,-135.35308837890625,91.12548828125
-1.2425537109375,0.1669921875,0.4366455078125,249.99237060546875,-168.32733154296875,98.68621826171875
-1.104736328125,0.1593017578125,0.0284423828125,214.54620361328125,-118.7591552734375,86.55548095703125
-1.0595703125,0.1058349609375,-0.0947265625,48.13385009765625,-34.4390869140625,47.87445068359375
-1.083984375,0.03564453125,-0.101318359375,-120.574951171875,9.246826171875,6.256103515625
-1.354736328125,-0.017578125,0.6456298828125,-250.0,-0.9765625,-16.80755615234375
-1.355712890625,-0.1279296875,0.838623046875,-250.0,-78.77349853515625,-12.176513671875
-1.1824951171875,-0.137939453125,0.60205078125,-250.0,-97.61810302734375,-3.79180908203125
-1.0682373046875,-0.1309814453125,0.502197265625,-250.0,-62.75177001953125,-6.50787353515625
-1.0045166015625,-0.123291015625,0.4228515625,-250.0,-40.91644287109375,-8.47625732421875
-0.9705810546875,-0.1165771484375,0.3441162109375,-192.7642822265625,-26.58843994140625,-2.52532958984375
-0.961669921875,-0.1082763671875,0.2750244140625,-120.1629638671875,-6.988525390625,6.89697265625
-1.0008544921875,-0.091796875,0.188232421875,-47.882080078125,14.892578125,13.73291015625
-1.04150390625,-0.076904296875,0.1065673828125,12.71820068359375,38.67340087890625,19.012451171875
-1.0751953125,-0.0582275390625,0.02587890625,54.9468994140625,62.87384033203125,22.23968505859375
-1.1365966796875,-0.0345458984375,-0.0318603515625,75.347900390625,90.00396728515625,21.46148681640625
-1.18212890625,-0.0128173828125,-0.060546875,73.883056640625,111.57989501953125,19.38629150390625
-1.1781005859375,-0.0028076171875,-0.06591796875,52.97088623046875,116.3177490234375,15.1519775390625
-1.1265869140625,-0.00732421875,-0.0584716796875,16.9525146484375,99.90692138671875,6.7138671875
-1.0574951171875,-0.018310546875,-0.05029296875,-27.03857421875,68.04656982421875,-5.67626953125
-0.9940185546875,-0.0277099609375,-0.041015625,-70.4498291015625,31.97479248046875,-20.172119140625
-0.9423828125,-0.0350341796875,-0.0303955078125,-106.1248779296875,0.3204345703125,-33.62274169921875
-0.89306640625,-0.0391845703125,-0.015625,-129.45556640625,-22.69744873046875,-43.426513671875
-0.8594970703125,-0.0386962890625,-0.0048828125,-138.5345458984375,-36.43798828125,-50.22430419921875
-0.8416748046875,-0.0357666015625,0.00244140625,-134.002685546875,-40.8477783203125,-53.5736083984375
-0.8486328125,-0.0328369140625,0.008056640625,-117.8741455078125,-37.59765625,-52.08587646484375
-0.8221435546875,-0.042724609375,-0.015869140625,-93.36090087890625,-29.24346923828125,-46.1578369140625
-0.7772216796875,-0.052490234375,-0.019775390625,-67.718505859375,-11.7034912109375,-41.3055419921875
-0.7725830078125,-0.0526123046875,-0.033447265625,-44.10552978515625,4.4097900390625,-42.1905517578125
-0.7828369140625,-0.04736328125,-0.052001953125,-25.4058837890625,16.204833984375,-45.013427734375
-0.8004150390625,-0.0390625,-0.0731201171875,-13.6871337890625,23.98681640625,-47.64556884765625
-0.8157958984375,-0.0303955078125,-0.0919189453125,-8.99505615234375,28.4271240234375,-49.4842529296875
-0.82470703125,-0.0245361328125,-0.10498046875,-10.2081298828125,30.60150146484375,-50.3997802734375
-0.8270263671875,-0.0272216796875,-0.123291015625,-14.50347900390625,30.6549072265625,-51.239013671875
-0.8076171875,-0.0291748046875,-0.1080322265625,-19.59991455078125,35.3851318359375,-52.45208740234375
-0.8043212890625,-0.025634765625,-0.092529296875,-20.97320556640625,41.961669921875,-50.9185791015625
-0.814697265625,-0.0198974609375,-0.083740234375,-18.7835693359375,44.8455810546875,-46.40960693359375
-0.8226318359375,-0.0167236328125,-0.076904296875,-13.8397216796875,45.99761962890625,-39.05487060546875
-0.822509765625,-0.018310546875,-0.0731201171875,-7.01141357421875,46.22650146484375,-30.1666259765625
-0.8306884765625,-0.0225830078125,-0.0697021484375,0.70953369140625,45.3643798828125,-21.209716796875
-0.8363037109375,-0.031494140625,-0.0697021484375,8.96453857421875,43.63250732421875,-12.6800537109375
-0.8477783203125,-0.0384521484375,-0.06787109375,17.08984375,42.19818115234375,-6.49261474609375
-0.8701171875,-0.04150390625,-0.0679931640625,24.5361328125,38.3453369140625,-3.05938720703125
-0.885986328125,-0.0406494140625,-0.0760498046875,29.5562744140625,29.80804443359375,-1.9073486328125
-0.894287109375,-0.0361328125,-0.091064453125,31.31866455078125,18.8446044921875,-2.49481201171875
-0.894287109375,-0.02880859375,-0.0999755859375,29.99114990234375,9.63592529296875,-3.5247802734375
-0.90234375,-0.0218505859375,-0.1097412109375,26.79443359375,2.7313232421875,-2.84576416015625
-0.91064453125,-0.01904296875,-0.1190185546875,21.61407470703125,-2.44903564453125,1.1444091796875
-0.9283447265625,-0.0196533203125,-0.1279296875,14.96124267578125,-6.500244140625,7.5531005859375
-0.9525146484375,-0.02490234375,-0.1314697265625,7.50732421875,-9.5062255859375,14.862060546875
-0.9801025390625,-0.0328369140625,-0.1370849609375,0.244140625,-12.1917724609375,21.6522216796875
-1.0067138671875,-0.04150390625,-0.13720703125,-6.439208984375,-14.45770263671875,26.40533447265625
-1.031005859375,-0.049072265625,-0.138671875,-11.39068603515625,-16.41082763671875,29.1595458984375
-1.0623779296875,-0.053466796875,-0.14013671875,-13.73291015625,-16.30401611328125,29.296875
-1.0989990234375,-0.0537109375,-0.13623046875,-12.82501220703125,-12.42828369140625,27.45819091796875
-1.14111328125,-0.05419921875,-0.1353759765625,-8.331298828125,-5.706787109375,24.749755859375
-1.1422119140625,-0.0535888671875,-0.108154296875,-0.19073486328125,5.25665283203125,22.7508544921875
-1.15234375,-0.052734375,-0.1148681640625,12.14599609375,11.23809814453125,17.99774169921875
-1.1422119140625,-0.050048828125,-0.1119384765625,22.5372314453125,16.8914794921875,11.8560791015625
-1.1302490234375,-0.0474853515625,-0.125,29.91485595703125,21.27838134765625,6.01959228515625
-1.1607666015625,-0.041259765625,-0.1517333984375,32.15789794921875,25.8026123046875,-0.51116943359375
-1.1929931640625,-0.035400390625,-0.171142578125,29.02984619140625,34.95025634765625,-6.500244140625
-1.222412109375,-0.03076171875,-0.1849365234375,21.78955078125,47.5311279296875,-12.61138916015625
-1.2337646484375,-0.043212890625,-0.09716796875,12.91656494140625,58.65478515625,-18.98956298828125
-1.23876953125,-0.069580078125,0.0299072265625,15.0909423828125,67.5048828125,-25.38299560546875
-1.217529296875,-0.05859375,-0.0299072265625,30.8990478515625,74.15008544921875,-29.266357421875
-1.2119140625,-0.04541015625,-0.0927734375,35.003662109375,75.9124755859375,-35.919189453125
-1.202392578125,-0.0322265625,-0.133056640625,30.06744384765625,83.984375,-43.8995361328125
-1.17724609375,-0.0216064453125,-0.1474609375,19.9127197265625,95.02410888671875,-51.04827880859375
-1.1300048828125,-0.01025390625,-0.1475830078125,9.04083251953125,104.60662841796875,-54.78668212890625
-1.1270751953125,-0.0054931640625,-0.168701171875,2.60162353515625,132.1563720703125,-40.435791015625
-1.507568359375,-0.223876953125,1.3623046875,35.736083984375,230.40771484375,-14.03045654296875
-1.667236328125,-0.2633056640625,1.99993896484375,245.03326416015625,249.99237060546875,36.38458251953125
-1.639404296875,-0.2774658203125,1.500732421875,249.99237060546875,170.257568359375,91.65191650390625
-1.5284423828125,-0.2117919921875,0.80224609375,249.99237060546875,15.2435302734375,112.84637451171875
-1.3455810546875,-0.12255859375,0.214599609375,249.99237060546875,-82.35931396484375,101.96685791015625
-1.16015625,-0.078857421875,-0.15087890625,249.99237060546875,-111.8316650390625,66.29180908203125
-1.067138671875,-0.063720703125,-0.3001708984375,83.0535888671875,-106.37664794921875,18.59283447265625
-1.0213623046875,-0.0889892578125,-0.2852783203125,-122.12371826171875,-81.0394287109375,-24.444580078125
-0.9910888671875,-0.1292724609375,-0.193115234375,-250.0,-65.40679931640625,-50.689697265625
-1.028076171875,-0.1580810546875,0.1953125,-250.0,-58.12835693359375,-55.6182861328125
-0.9957275390625,-0.14892578125,0.18017578125,-250.0,-70.3582763671875,-41.717529296875
-0.9681396484375,-0.13623046875,0.1826171875,-250.0,-74.97406005859375,-26.1688232421875
-0.9503173828125,-0.1287841796875,0.1734619140625,-229.827880859375,-75.0274658203125,-10.84136962890625
-0.9344482421875,-0.1258544921875,0.16748046875,-146.61407470703125,-70.8160400390625,4.8370361328125
-0.9239501953125,-0.1258544921875,0.13330078125,-57.22808837890625,-67.6727294921875,22.59063720703125
-0.9136962890625,-0.1253662109375,0.0762939453125,27.03857421875,-63.28582763671875,39.5660400390625
-0.903564453125,-0.1202392578125,0.0029296875,95.39794921875,-58.28857421875,54.10003662109375
-0.8775634765625,-0.1107177734375,-0.0731201171875,139.3280029296875,-54.351806640625,65.25421142578125
-0.856689453125,-0.09765625,-0.151123046875,155.1055908203125,-52.642822265625,71.15936279296875
-0.833984375,-0.0863037109375,-0.205322265625,143.39447021484375,-50.19378662109375,71.258544921875
-0.820068359375,-0.0792236328125,-0.2392578125,109.71832275390625,-49.62158203125,66.558837890625
-0.7984619140625,-0.078125,-0.248779296875,62.79754638671875,-50.65155029296875,58.807373046875
-0.7872314453125,-0.0799560546875,-0.231689453125,12.7410888671875,-50.7049560546875,48.83575439453125
-0.7969970703125,-0.0802001953125,-0.1912841796875,-31.68487548828125,-50.2471923828125,38.87939453125
-0.8096923828125,-0.080810546875,-0.1387939453125,-62.98828125,-52.34527587890625,32.53936767578125
-0.811279296875,-0.0855712890625,-0.087158203125,-76.88140869140625,-58.0596923828125,30.78460693359375
-0.8128662109375,-0.0908203125,-0.052734375,-72.73101806640625,-65.11688232421875,31.890869140625
-0.809814453125,-0.0938720703125,-0.0311279296875,-53.35235595703125,-69.95391845703125,35.49957275390625
-0.8040771484375,-0.09521484375,-0.0291748046875,-23.98681640625,-72.7386474609375,40.84014892578125
-0.7994384765625,-0.094482421875,-0.04248046875,8.55255126953125,-73.150634765625,46.5087890625
-0.7947998046875,-0.09228515625,-0.0733642578125,37.60528564453125,-71.807861328125,51.88751220703125
-0.7835693359375,-0.08984375,-0.1146240234375,57.18231201171875,-68.80950927734375,55.22918701171875
-0.770263671875,-0.0855712890625,-0.158447265625,63.60626220703125,-62.713623046875,54.7943115234375
-0.7667236328125,-0.0799560546875,-0.1923828125,56.7779541015625,-52.0477294921875,50.537109375
-0.7734375,-0.073974609375,-0.211669921875,39.14642333984375,-38.51318359375,44.0216064453125
-0.78759765625,-0.0687255859375,-0.2115478515625,15.05279541015625,-23.5137939453125,37.200927734375
-0.819580078125,-0.0662841796875,-0.1978759765625,-9.75799560546875,-8.7890625,32.0281982421875
-0.84716796875,-0.06640625,-0.1708984375,-29.64019775390625,5.05828857421875,29.3426513671875
-0.8748779296875,-0.0679931640625,-0.13623046875,-40.7562255859375,17.40264892578125,28.3660888671875
-0.9022216796875,-0.070556640625,-0.100830078125,-41.3055419921875,27.45819091796875,29.35028076171875
-0.933837890625,-0.072998046875,-0.078125,-31.59332275390625,34.149169921875,31.9671630859375
-0.96875,-0.07470703125,-0.070068359375,-14.51873779296875,39.32952880859375,35.94207763671875
-0.998779296875,-0.07421875,-0.073486328125,6.23321533203125,44.24285888671875,40.55023193359375
-1.026123046875,-0.0740966796875,-0.0921630859375,26.214599609375,49.12567138671875,44.2962646484375
-1.053955078125,-0.0721435546875,-0.115478515625,40.9698486328125,54.412841796875,46.4019775390625
-1.0723876953125,-0.07080078125,-0.14306640625,47.9583740234375,59.80682373046875,46.82159423828125
-1.085205078125,-0.0701904296875,-0.16455078125,46.24176025390625,65.65093994140625,44.89898681640625
-1.0972900390625,-0.070068359375,-0.1761474609375,36.834716796875,71.1517333984375,41.0614013671875
-1.09814453125,-0.07177734375,-0.1788330078125,22.2320556640625,76.40838623046875,36.346435546875
-1.095458984375,-0.0687255859375,-0.1668701171875,5.18035888671875,80.97076416015625,30.609130859375
-1.48193359375,0.43505859375,0.38818359375,-72.6318359375,25.5889892578125,16.54052734375
-1.643798828125,0.4854736328125,1.02490234375,-250.0,-147.186279296875,-3.21197509765625
-1.4586181640625,0.125244140625,1.6129150390625,-250.0,-250.0,0.57220458984375
-0.8966064453125,-0.06982421875,1.67822265625,-250.0,-250.0,0.1373291015625
-0.5394287109375,-0.1729736328125,1.479736328125,-250.0,-207.34405517578125,11.23809814453125
-0.6339111328125,-0.20166015625,1.241455078125,-250.0,-67.07763671875,26.2603759765625
-0.8287353515625,-0.212646484375,1.0367431640625,-235.2142333984375,47.9736328125,65.948486328125
-0.95849609375,-0.2197265625,0.862548828125,-43.487548828125,119.354248046875,116.0125732421875
-1.0084228515625,-0.2396240234375,0.6702880859375,127.5482177734375,121.917724609375,152.50396728515625
-1.0455322265625,-0.249267578125,0.4422607421875,249.99237060546875,86.93695068359375,166.7633056640625
-1.0758056640625,-0.24365234375,0.2088623046875,249.99237060546875,49.6673583984375,163.75732421875
-1.1256103515625,-0.2041015625,-0.009765625,249.99237060546875,25.91705322265625,150.52032470703125
-1.14306640625,-0.1435546875,-0.15966796875,249.99237060546875,15.38848876953125,131.26373291015625
-1.135498046875,-0.0928955078125,-0.3001708984375,249.99237060546875,10.4522705078125,102.37884521484375
-1.175537109375,-0.0455322265625,-0.3668212890625,249.99237060546875,25.76446533203125,65.49835205078125
-1.2325439453125,-0.0078125,-0.35498046875,186.83624267578125,48.2177734375,36.3616943359375
-1.2811279296875,0.017822265625,-0.302001953125,89.019775390625,54.5806884765625,19.83642578125
-1.3121337890625,0.0328369140625,-0.248291015625,2.44903564453125,47.01995849609375,11.41357421875
-1.310546875,0.0322265625,-0.1739501953125,-63.66729736328125,36.9415283203125,5.5694580078125
-1.22607421875,0.011962890625,-0.1121826171875,-104.5989990234375,24.7039794921875,0.86212158203125
-1.1243896484375,-0.0101318359375,-0.0599365234375,-120.4986572265625,19.41680908203125,-5.6915283203125
-1.036376953125,-0.025390625,-0.0081787109375,-114.23492431640625,23.6968994140625,-11.5509033203125
-0.9669189453125,-0.0364990234375,0.031005859375,-90.24810791015625,32.0587158203125,-14.41192626953125
-0.8968505859375,-0.048828125,0.0552978515625,-54.66461181640625,40.53497314453125,-15.4266357421875
-0.84375,-0.0565185546875,0.06005859375,-14.45770263671875,47.24884033203125,-18.57757568359375
-0.80810546875,-0.0577392578125,0.05322265625,22.11761474609375,48.98834228515625,-24.871826171875
-0.7835693359375,-0.052734375,0.0240478515625,47.576904296875,39.9932861328125,-33.6151123046875
-0.7652587890625,-0.0433349609375,-0.013671875,56.55670166015625,21.392822265625,-43.34259033203125
-0.74609375,-0.0340576171875,-0.0567626953125,48.60687255859375,-3.2196044921875,-53.24554443359375
-0.7283935546875,-0.0269775390625,-0.099853515625,26.1688232421875,-28.16009521484375,-64.12506103515625
-0.7222900390625,-0.0203857421875,-0.1246337890625,-6.5155029296875,-48.10333251953125,-75.9124755859375
-0.7139892578125,-0.0166015625,-0.135009765625,-42.5872802734375,-62.70599365234375,-86.1053466796875
-0.7099609375,-0.01513671875,-0.12451171875,-75.56915283203125,-70.30487060546875,-93.43719482421875
-0.71044921875,-0.0145263671875,-0.102294921875,-99.2889404296875,-71.46453857421875,-96.5423583984375
-0.7149658203125,-0.013671875,-0.0732421875,-109.9853515625,-67.352294921875,-94.64263916015625
-0.7276611328125,-0.0118408203125,-0.0457763671875,-106.25457763671875,-60.15777587890625,-87.69989013671875
-0.747802734375,-0.0120849609375,-0.028564453125,-89.35546875,-51.3916015625,-76.4923095703125
-0.7669677734375,-0.0140380859375,-0.020263671875,-62.9425048828125,-40.99273681640625,-62.9730224609375
-0.7861328125,-0.0172119140625,-0.0213623046875,-31.6925048828125,-30.33447265625,-49.6368408203125
-0.8028564453125,-0.0194091796875,-0.03271484375,-0.67901611328125,-21.331787109375,-38.09356689453125
-0.8160400390625,-0.0198974609375,-0.0533447265625,25.2227783203125,-14.88494873046875,-28.8238525390625
-0.8262939453125,-0.0201416015625,-0.080810546875,42.2821044921875,-11.23046875,-21.56829833984375
-0.835693359375,-0.020751953125,-0.1094970703125,48.78997802734375,-9.36126708984375,-16.30401611328125
-0.8369140625,-0.02197265625,-0.135498046875,44.952392578125,-7.843017578125,-13.23699951171875
-0.8427734375,-0.0244140625,-0.1558837890625,32.40203857421875,-4.49371337890625,-13.12255859375
-0.859375,-0.0267333984375,-0.16015625,14.10675048828125,1.6632080078125,-15.26641845703125
-0.8831787109375,-0.028564453125,-0.15087890625,-5.7373046875,8.46099853515625,-18.18084716796875
-0.90869140625,-0.0289306640625,-0.130615234375,-22.81951904296875,15.32745361328125,-21.14105224609375
-0.935546875,-0.0316162109375,-0.10595703125,-33.447265625,22.0489501953125,-23.895263671875
-0.9476318359375,-0.0338134765625,-0.07421875,-35.430908203125,29.2205810546875,-25.62713623046875
-0.966064453125,-0.0335693359375,-0.047119140625,-28.03802490234375,35.27069091796875,-27.13775634765625
-0.992431640625,-0.031005859375,-0.0291748046875,-12.908935546875,39.8712158203125,-27.83203125
-1.022705078125,-0.0267333984375,-0.0228271484375,7.049560546875,42.51861572265625,-27.00042724609375
-1.05908203125,-0.017333984375,-0.0235595703125,28.167724609375,43.95294189453125,-24.75738525390625
-1.108642578125,-0.008056640625,-0.0546875,46.80633544921875,43.701171875,-20.66802978515625
-1.154296875,0.0013427734375,-0.08056640625,58.41064453125,46.48590087890625,-16.24298095703125
-1.1827392578125,0.0040283203125,-0.10791015625,61.51580810546875,50.07171630859375,-14.09912109375
-1.1966552734375,0.0045166015625,-0.1212158203125,56.03790283203125,55.15289306640625,-14.8468017578125
-1.218017578125,-0.01611328125,-0.00439453125,45.35675048828125,60.9130859375,-19.04296875
-1.236083984375,-0.013427734375,0.016357421875,34.44671630859375,56.63299560546875,-26.1993408203125
-1.226806640625,-0.0059814453125,-0.023681640625,8.48388671875,44.677734375,-36.96441650390625
-1.2215576171875,-0.011962890625,0.013916015625,-9.1705322265625,45.196533203125,-45.4559326171875
-1.238525390625,-0.0035400390625,-0.010498046875,-16.7694091796875,44.31915283203125,-50.0335693359375
-1.2913818359375,0.0057373046875,-0.0299072265625,-18.08929443359375,45.562744140625,-52.5970458984375
-1.3414306640625,0.0150146484375,-0.043701171875,-11.92474365234375,50.8270263671875,-53.8330078125
-1.3367919921875,0.017333984375,-0.044677734375,-0.67138671875,57.373046875,-54.58831787109375
-1.307861328125,0.01513671875,-0.051025390625,12.8631591796875,61.5692138671875,-56.95343017578125
-1.2891845703125,0.016845703125,-0.0626220703125,25.84075927734375,62.78228759765625,-60.02044677734375
-1.284912109375,0.023193359375,-0.083740234375,37.07122802734375,63.74359130859375,-63.05694580078125
-1.2645263671875,0.027099609375,-0.1024169921875,45.67718505859375,68.359375,-66.1468505859375
-1.2303466796875,0.03076171875,-0.113037109375,51.0406494140625,74.7833251953125,-70.22857666015625
-1.1943359375,0.03076171875,-0.1307373046875,52.6580810546875,80.26885986328125,-73.974609375
-1.1505126953125,0.0301513671875,-0.1370849609375,50.2471923828125,87.0513916015625,-76.24053955078125
-1.11279296875,0.0281982421875,-0.143310546875,45.92132568359375,94.62738037109375,-77.46124267578125
-1.112060546875,0.0284423828125,-0.14306640625,41.7022705078125,105.7586669921875,-76.2786865234375
-1.1075439453125,0.03125,-0.1253662109375,39.54315185546875,120.33843994140625,-70.892333984375
-1.1136474609375,0.033203125,-0.11572265625,39.89410400390625,129.81414794921875,-64.239501953125
-1.1114501953125,0.0068359375,0.0606689453125,41.015625,134.28497314453125,-56.52618408203125
-1.279296875,-0.193603515625,1.151123046875,94.207763671875,107.42950439453125,-41.96929931640625
-1.162109375,-0.2679443359375,0.82861328125,249.99237060546875,64.43023681640625,-9.07135009765625
-1.0535888671875,-0.220947265625,0.3656005859375,249.99237060546875,71.868896484375,8.90350341796875
-1.0037841796875,-0.1416015625,-0.007568359375,249.99237060546875,82.70263671875,17.37213134765625
-0.969482421875,-0.0648193359375,0.0740966796875,249.99237060546875,97.9766845703125,12.1612548828125
-1.0125732421875,-0.074462890625,0.322265625,249.99237060546875,72.88360595703125,-2.15911865234375
-0.9552001953125,-0.0950927734375,0.3572998046875,186.33270263671875,24.627685546875,-12.04681396484375
-0.8980712890625,-0.086669921875,0.274169921875,110.3668212890625,-8.97216796875,-22.88055419921875
-0.858154296875,-0.0628662109375,0.2244873046875,35.9954833984375,-27.45819091796875,-33.14971923828125
-0.822021484375,-0.0657958984375,0.1949462890625,-36.29302978515625,-42.90008544921875,-40.79437255859375
-0.7747802734375,-0.0733642578125,0.1741943359375,-95.58868408203125,-56.0760498046875,-45.06683349609375
-0.7371826171875,-0.070068359375,0.136474609375,-138.71002197265625,-65.95611572265625,-46.600341796875
-0.71142578125,-0.057373046875,0.1041259765625,-166.1376953125,-70.76263427734375,-44.769287109375
-0.7091064453125,-0.0465087890625,0.08642578125,-177.9937744140625,-73.21929931640625,-38.5284423828125
-0.7108154296875,-0.041259765625,0.08349609375,-173.51531982421875,-75.25634765625,-26.702880859375
-0.717529296875,-0.0413818359375,0.083251953125,-152.8167724609375,-76.92718505859375,-11.0626220703125
-0.7305908203125,-0.0457763671875,0.07763671875,-117.85125732421875,-75.4852294921875,6.500244140625
-0.740966796875,-0.053466796875,0.063232421875,-73.638916015625,-70.36590576171875,24.04022216796875
-0.7554931640625,-0.060302734375,0.038330078125,-26.6876220703125,-63.52996826171875,40.00091552734375
-0.7779541015625,-0.065673828125,-0.0035400390625,16.2811279296875,-56.66351318359375,53.44390869140625
-0.804931640625,-0.0670166015625,-0.0517578125,48.9044189453125,-49.38507080078125,63.873291015625
-0.8394775390625,-0.0654296875,-0.103271484375,67.413330078125,-42.05322265625,70.4498291015625
-0.872802734375,-0.0733642578125,-0.087890625,72.34954833984375,-33.07342529296875,73.5626220703125
-0.8809814453125,-0.217529296875,-0.147216796875,65.765380859375,-26.83258056640625,72.845458984375
-0.8941650390625,-0.318359375,-0.15673828125,35.1104736328125,-19.87457275390625,61.40899658203125
-0.9168701171875,-0.2833251953125,-0.125244140625,-5.1116943359375,-14.7857666015625,45.1812744140625
-0.927978515625,-0.216064453125,-0.08544921875,-35.797119140625,-11.9476318359375,34.26361083984375
-0.9293212890625,-0.171630859375,-0.0604248046875,-49.957275390625,-10.7269287109375,29.6478271484375
-0.919921875,-0.14208984375,-0.0357666015625,-48.66790771484375,-9.033203125,28.78570556640625
-0.9049072265625,-0.12060546875,-0.018798828125,-34.47723388671875,-7.27081298828125,29.9072265625
-0.88720703125,-0.104736328125,-0.0155029296875,-11.8865966796875,-5.59234619140625,32.3333740234375
-0.8707275390625,-0.091796875,-0.027587890625,13.71002197265625,-3.56292724609375,36.06414794921875
-0.8641357421875,-0.07861328125,-0.051513671875,36.651611328125,-0.79345703125,40.2984619140625
-0.86474609375,-0.066162109375,-0.0828857421875,52.36053466796875,2.5482177734375,44.2657470703125
-0.8729248046875,-0.0552978515625,-0.115234375,57.76214599609375,6.37054443359375,47.49298095703125
-0.891845703125,-0.0462646484375,-0.144775390625,52.1240234375,10.13946533203125,50.08697509765625
-0.921630859375,-0.0396728515625,-0.1669921875,37.1856689453125,14.1754150390625,52.2918701171875
-0.9873046875,-0.0655517578125,-0.0047607421875,16.82281494140625,19.59991455078125,54.43572998046875
-1.069580078125,-0.1201171875,0.325927734375,17.99774169921875,30.45654296875,60.6689453125
-1.1451416015625,-0.1669921875,0.5380859375,59.6160888671875,31.8145751953125,73.1201171875
-1.1851806640625,-0.1944580078125,0.5440673828125,112.03765869140625,18.7835693359375,85.57891845703125
-1.197265625,-0.20068359375,0.4923095703125,141.4947509765625,2.532958984375,91.40777587890625
-1.168212890625,-0.178955078125,0.4310302734375,138.85498046875,-9.82666015625,89.0350341796875
-1.201416015625,-0.149658203125,0.404541015625,104.72869873046875,-20.660400390625,79.7271728515625
-1.186767578125,-0.1436767578125,0.4735107421875,52.1087646484375,-18.9971923828125,67.90924072265625
-1.173583984375,-0.13037109375,0.545654296875,-6.46209716796875,-29.0374755859375,54.8858642578125
-1.132568359375,-0.097412109375,0.4256591796875,-57.35015869140625,-61.004638671875,44.83795166015625
-1.132568359375,-0.0732421875,0.2183837890625,-103.44696044921875,-92.2088623046875,38.41400146484375
-1.12939453125,-0.053466796875,0.190673828125,-143.53179931640625,-93.68896484375,36.33880615234375
-1.0972900390625,-0.0506591796875,0.15087890625,-157.9437255859375,-75.0579833984375,38.64288330078125
-1.0682373046875,-0.0557861328125,0.0968017578125,-154.83856201171875,-49.14093017578125,41.3055419921875
-1.083251953125,-0.056884765625,0.0665283203125,-145.751953125,-28.4423828125,45.96710205078125
-1.1240234375,-0.056396484375,0.050048828125,-129.08935546875,-12.176513671875,52.63519287109375
-1.154541015625,-0.055419921875,0.04736328125,-103.72161865234375,0.6103515625,58.60137939453125
-1.1739501953125,-0.051025390625,0.04248046875,-70.85418701171875,9.92584228515625,62.957763671875
-1.1767578125,-0.046875,0.03173828125,-35.369873046875,14.16015625,66.58935546875
-1.1871337890625,-0.0386962890625,0.0059814453125,-1.617431640625,15.28167724609375,68.7713623046875
-1.1923828125,-0.0286865234375,-0.0181884765625,25.726318359375,16.8304443359375,68.29071044921875
-1.187255859375,-0.0206298828125,-0.04248046875,44.02923583984375,17.29583740234375,64.88037109375
-1.1822509765625,-0.0177001953125,0.0140380859375,54.840087890625,18.79119873046875,59.173583984375
-1.21875,0.0089111328125,-0.03125,59.86785888671875,14.62554931640625,52.54364013671875
-1.2205810546875,0.0228271484375,-0.077880859375,53.6041259765625,8.21685791015625,49.74365234375
-1.1708984375,0.01416015625,-0.1287841796875,35.94207763671875,5.01251220703125,46.88262939453125
-1.1727294921875,0.015625,-0.122314453125,9.368896484375,12.71820068359375,38.909912109375
-1.1845703125,0.0224609375,-0.014892578125,-16.62445068359375,17.37213134765625,31.1737060546875
-1.1787109375,0.0220947265625,-0.0262451171875,-37.4755859375,4.913330078125,24.505615234375
-1.146728515625,0.0157470703125,-0.030517578125,-56.304931640625,-11.474609375,17.852783203125
-1.1112060546875,0.01025390625,-0.0194091796875,-68.88580322265625,-23.82659912109375,9.62066650390625
-1.0693359375,0.006103515625,-0.0023193359375,-72.31903076171875,-31.94427490234375,1.15203857421875
-1.02587890625,0.0015869140625,0.0068359375,-66.73431396484375,-39.16168212890625,-5.88226318359375
-0.9779052734375,-0.00146484375,0.0130615234375,-54.02374267578125,-44.10552978515625,-11.02447509765625
-0.9322509765625,-0.0010986328125,0.010986328125,-36.07940673828125,-46.53167724609375,-14.5111083984375
-0.888671875,0.0006103515625,0.001953125,-16.07513427734375,-46.0205078125,-16.45660400390625
-0.8480224609375,0.003173828125,-0.0128173828125,1.3275146484375,-44.63958740234375,-16.448974609375
-0.8226318359375,0.0078125,-0.012939453125,14.16015625,-43.39599609375,-14.68658447265625
-0.797119140625,0.01025390625,-0.03564453125,21.728515625,-42.144775390625,-11.77215576171875
-0.77783203125,0.0135498046875,-0.054931640625,22.064208984375,-39.13116455078125,-9.43756103515625
-0.76123046875,0.0166015625,-0.06591796875,16.13616943359375,-33.721923828125,-8.29315185546875
-0.7490234375,0.0169677734375,-0.0745849609375,5.08880615234375,-27.6641845703125,-7.27081298828125
-0.7374267578125,0.0146484375,-0.075439453125,-8.59832763671875,-20.8892822265625,-6.32476806640625
-0.72998046875,0.0106201171875,-0.078857421875,-22.2930908203125,-13.14544677734375,-5.68389892578125
-0.737548828125,0.0076904296875,-0.070068359375,-34.2559814453125,-3.3111572265625,-5.462646484375
-0.75537109375,0.00439453125,-0.05859375,-42.32025146484375,6.1798095703125,-4.47845458984375
-0.7730712890625,0.0010986328125,-0.041259765625,-45.0439453125,14.251708984375,-2.25830078125
-0.78662109375,-0.0037841796875,-0.021240234375,-41.49627685546875,21.14105224609375,0.8392333984375
-0.7965087890625,-0.0091552734375,-0.0047607421875,-32.12738037109375,26.26800537109375,4.3792724609375
-0.8060302734375,-0.0140380859375,0.00390625,-18.36395263671875,29.5867919921875,7.82012939453125
-0.8177490234375,-0.01611328125,0.006103515625,-2.18963623046875,31.50177001953125,10.528564453125
-0.8385009765625,-0.0157470703125,-0.0010986328125,14.2974853515625,32.6385498046875,12.5579833984375
-0.8489990234375,-0.017822265625,-0.0140380859375,28.73992919921875,34.0728759765625,13.916015625
-0.8582763671875,-0.0177001953125,-0.0234375,39.20745849609375,36.12518310546875,13.5650634765625
-0.8681640625,-0.0166015625,-0.0360107421875,45.0286865234375,36.9415283203125,11.77978515625
-0.875244140625,-0.0150146484375,-0.0478515625,45.76873779296875,37.109375,9.07135009765625
-0.8800048828125,-0.01416015625,-0.0565185546875,42.09136962890625,37.0330810546875,5.65338134765625
-0.8839111328125,-0.013916015625,-0.0592041015625,34.91973876953125,36.91864013671875,1.8463134765625
-0.8878173828125,-0.01416015625,-0.056640625,25.97808837890625,36.6058349609375,-1.9073486328125
-0.894775390625,-0.01513671875,-0.050537109375,17.425537109375,35.7208251953125,-5.55419921875
-0.9112548828125,-0.0152587890625,-0.0440673828125,11.00921630859375,34.454345703125,-9.05609130859375
-0.931640625,-0.014404296875,-0.03564453125,7.98797607421875,33.42437744140625,-11.962890625
-0.956787109375,-0.0125732421875,-0.0283203125,9.002685546875,32.3486328125,-14.0838623046875
-0.9876708984375,-0.0103759765625,-0.024169921875,14.06097412109375,31.37969970703125,-15.44952392578125
-1.0277099609375,-0.00732421875,-0.02490234375,22.613525390625,30.7769775390625,-16.15142822265625
-1.0694580078125,-0.0020751953125,-0.02783203125,33.59222412109375,30.90667724609375,-16.2200927734375
-1.111572265625,0.0037841796875,-0.0364990234375,45.074462890625,31.06689453125,-15.86151123046875
-1.147216796875,0.0098876953125,-0.0484619140625,54.95452880859375,30.89141845703125,-15.44189453125
-1.1658935546875,0.0140380859375,-0.0625,61.39373779296875,30.120849609375,-15.380859375
-1.16650390625,0.01513671875,-0.0802001953125,63.0035400390625,28.5491943359375,-16.4794921875
-1.15283203125,0.0133056640625,-0.1004638671875,58.77685546875,26.6571044921875,-18.97430419921875
-1.1544189453125,0.0130615234375,-0.120361328125,48.91204833984375,26.214599609375,-23.03314208984375
-1.1934814453125,0.0172119140625,-0.1370849609375,35.064697265625,28.4576416015625,-27.2064208984375
-1.2501220703125,0.0223388671875,-0.1435546875,20.69091796875,34.759521484375,-30.4718017578125
-1.2894287109375,0.022216796875,-0.13623046875,9.2010498046875,44.2657470703125,-33.4320068359375
-1.26220703125,0.0343017578125,-0.069580078125,1.36566162109375,55.4962158203125,-33.65325927734375
-1.3009033203125,0.0433349609375,-0.1007080078125,2.06756591796875,55.79376220703125,-19.134521484375
-1.3372802734375,0.0433349609375,-0.101806640625,17.3797607421875,91.6595458984375,-12.80975341796875
-1.3310546875,0.0364990234375,-0.0743408203125,38.63525390625,137.6190185546875,-16.998291015625
-1.339111328125,0.038330078125,-0.0997314453125,61.5234375,165.76385498046875,-20.57647705078125
-1.3526611328125,0.052978515625,-0.0938720703125,83.42742919921875,203.49884033203125,-28.594970703125
-1.464111328125,-0.1370849609375,0.8184814453125,114.09759521484375,236.8316650390625,-38.9862060546875
-1.6002197265625,0.09130859375,1.1312255859375,249.99237060546875,193.0694580078125,-21.90399169921875
-1.6212158203125,0.2730712890625,1.0250244140625,249.99237060546875,4.7760009765625,-20.5230712890625
-1.27197265625,0.233154296875,0.588623046875,249.99237060546875,-82.95440673828125,-37.39166259765625
-1.12158203125,0.187255859375,0.3897705078125,174.12567138671875,-67.58880615234375,-59.73052978515625
-1.0870361328125,0.1357421875,0.2666015625,95.16143798828125,-18.10455322265625,-94.0704345703125
-1.0654296875,0.0999755859375,0.1878662109375,24.078369140625,-7.843017578125,-117.85888671875
-1.055908203125,0.0711669921875,0.106689453125,-35.46905517578125,-26.14593505859375,-123.443603515625
-1.04296875,0.048828125,0.07470703125,-77.75115966796875,-42.97637939453125,-113.922119140625
-1.02294921875,0.030517578125,0.0694580078125,-95.19195556640625,-52.0782470703125,-93.3990478515625
-1.0189208984375,0.0185546875,0.0823974609375,-87.22686767578125,-55.36651611328125,-67.0166015625
-1.02392578125,0.00048828125,0.0899658203125,-57.0831298828125,-57.80029296875,-35.85052490234375
-0.98583984375,-0.023681640625,0.0916748046875,-11.63482666015625,-61.22589111328125,-1.0833740234375
-0.9468994140625,-0.047607421875,0.0633544921875,40.8172607421875,-66.7266845703125,30.83038330078125
-0.92578125,-0.0640869140625,0.0196533203125,90.0421142578125,-69.610595703125,56.15997314453125
-0.917236328125,-0.0732421875,-0.0318603515625,127.288818359375,-71.9146728515625,75.1953125
-0.9049072265625,-0.0765380859375,-0.09375,146.38519287109375,-77.36968994140625,89.62249755859375
-0.872802734375,-0.08056640625,-0.154052734375,143.85986328125,-85.113525390625,98.91510009765625
-0.8258056640625,-0.086669921875,-0.2054443359375,120.56732177734375,-92.72003173828125,101.8524169921875
-0.7747802734375,-0.0960693359375,-0.2337646484375,81.11572265625,-96.18377685546875,96.9696044921875
-0.733154296875,-0.1072998046875,-0.2318115234375,32.89794921875,-96.099853515625,84.2132568359375
-0.703857421875,-0.117919921875,-0.207275390625,-15.08331298828125,-94.58160400390625,67.0166015625
-0.6932373046875,-0.122802734375,-0.162841796875,-53.9398193359375,-92.193603515625,48.60687255859375
-0.7020263671875,-0.122314453125,-0.1114501953125,-76.84326171875,-89.59197998046875,31.95953369140625
-0.718994140625,-0.120849609375,-0.067138671875,-80.52825927734375,-87.066650390625,20.13397216796875
-0.7384033203125,-0.11767578125,-0.0362548828125,-65.71197509765625,-83.00018310546875,13.3209228515625
-0.759033203125,-0.114013671875,-0.0245361328125,-36.75079345703125,-76.141357421875,10.2996826171875
-0.7774658203125,-0.10888671875,-0.0323486328125,-0.55694580078125,-67.3675537109375,9.46044921875
-0.79345703125,-0.1016845703125,-0.0570068359375,34.7442626953125,-57.54852294921875,9.063720703125
-0.8092041015625,-0.09033203125,-0.0926513671875,62.01171875,-47.2259521484375,7.9803466796875
-0.823974609375,-0.0767822265625,-0.1324462890625,76.4923095703125,-37.0330810546875,5.828857421875
-0.83154296875,-0.0634765625,-0.1695556640625,76.51519775390625,-27.1453857421875,2.31170654296875
-0.8330078125,-0.0523681640625,-0.193603515625,62.73651123046875,-17.5933837890625,-2.7313232421875
-0.8306884765625,-0.0426025390625,-0.19970703125,38.90228271484375,-9.25445556640625,-8.11004638671875
-0.823974609375,-0.0380859375,-0.1937255859375,10.39886474609375,-2.41851806640625,-12.67242431640625
-0.8179931640625,-0.034912109375,-0.171875,-17.2119140625,3.79180908203125,-15.869140625
-0.8189697265625,-0.0340576171875,-0.14453125,-38.58184814453125,8.85009765625,-16.4794921875
-0.8201904296875,-0.0360107421875,-0.11767578125,-50.3692626953125,13.99993896484375,-13.84735107421875
-0.8240966796875,-0.0384521484375,-0.0914306640625,-51.73492431640625,20.34759521484375,-9.19342041015625
-0.8306884765625,-0.0428466796875,-0.07373046875,-43.52569580078125,27.01568603515625,-3.0059814453125
-0.8404541015625,-0.0469970703125,-0.0667724609375,-28.86962890625,33.71429443359375,3.97491455078125
-0.8585205078125,-0.051025390625,-0.072998046875,-12.03155517578125,39.7491455078125,10.85662841796875
-0.88818359375,-0.0540771484375,-0.0933837890625,2.79998779296875,45.64666748046875,16.6473388671875
-0.927734375,-0.0560302734375,-0.1187744140625,12.32147216796875,52.13165283203125,20.54595947265625
-0.9715576171875,-0.056884765625,-0.144287109375,14.54925537109375,59.07440185546875,22.23968505859375
-1.017822265625,-0.0562744140625,-0.164794921875,9.23919677734375,65.83404541015625,21.8048095703125
-1.058349609375,-0.05615234375,-0.1759033203125,-2.2735595703125,71.72393798828125,20.355224609375
-1.087890625,-0.0552978515625,-0.1748046875,-17.29583740234375,76.11083984375,18.2647705078125
-1.11474609375,-0.05712890625,-0.170654296875,-32.55462646484375,77.87322998046875,15.76995849609375
-1.1375732421875,-0.05859375,-0.1541748046875,-45.34912109375,79.36859130859375,13.92364501953125
-1.1856689453125,-0.0496826171875,-0.0460205078125,-52.642822265625,79.681396484375,13.3209228515625
-2.0,0.1522216796875,1.99993896484375,16.9677734375,12.39013671875,42.27447509765625
-1.8553466796875,-0.0281982421875,1.7940673828125,249.99237060546875,-155.47943115234375,123.4283447265625
-1.300048828125,0.1436767578125,1.44970703125,249.99237060546875,-220.26824951171875,160.91156005859375
-0.8924560546875,0.234619140625,0.95361328125,249.99237060546875,-132.86590576171875,151.14593505859375
-0.8758544921875,0.19873046875,0.4061279296875,249.99237060546875,-28.9459228515625,82.3516845703125
-0.9110107421875,0.1331787109375,0.1649169921875,173.5992431640625,42.5872802734375,10.58197021484375
-0.998046875,0.06640625,-0.00439453125,-40.45867919921875,36.39984130859375,-38.238525390625
-1.31201171875,0.042236328125,0.629150390625,-226.90582275390625,-2.3651123046875,-53.3905029296875
-1.227294921875,-0.0084228515625,0.5181884765625,-250.0,-64.6514892578125,-27.9083251953125
-1.10400390625,-0.0289306640625,0.32666015625,-250.0,-78.0181884765625,-18.63861083984375
-1.0677490234375,-0.0338134765625,0.22509765625,-250.0,-59.08203125,-23.956298828125
-1.0963134765625,-0.0274658203125,0.168212890625,-250.0,-30.1666259765625,-26.81732177734375
-1.1561279296875,-0.009033203125,0.1409912109375,-223.64044189453125,-2.28118896484375,-21.9268798828125
-1.222412109375,0.011474609375,0.12548828125,-179.8553466796875,22.27020263671875,-10.955810546875
-1.2451171875,0.012451171875,0.092529296875,-129.150390625,42.88482666015625,4.69207763671875
-1.2589111328125,0.0140380859375,0.0726318359375,-76.95770263671875,70.6024169921875,18.6920166015625
-1.3048095703125,0.02783203125,0.074462890625,-29.3121337890625,100.12054443359375,26.580810546875
-1.347412109375,0.04638671875,0.07421875,7.94219970703125,108.4136962890625,32.95135498046875
-1.329833984375,0.05029296875,0.061767578125,30.63201904296875,89.2791748046875,39.398193359375
-1.250732421875,0.036865234375,0.036376953125,38.52081298828125,53.7109375,41.51153564453125
-1.1854248046875,0.0272216796875,0.0003662109375,34.5458984375,15.84625244140625,36.07177734375
-1.12060546875,0.0235595703125,-0.0355224609375,20.8740234375,-17.486572265625,24.200439453125
-1.0582275390625,0.0238037109375,-0.0616455078125,-0.396728515625,-45.928955078125,6.988525390625
-1.031005859375,0.02783203125,-0.0771484375,-24.2462158203125,-66.44439697265625,-9.9945068359375
-0.948486328125,0.0155029296875,-0.1102294921875,-45.8526611328125,-80.54351806640625,-22.62115478515625
-0.8388671875,-0.0025634765625,-0.11328125,-64.1632080078125,-74.69940185546875,-34.6832275390625
-0.7821044921875,-0.009033203125,-0.0833740234375,-76.0955810546875,-55.99212646484375,-47.88970947265625
-0.759765625,-0.00732421875,-0.0577392578125,-77.5299072265625,-40.00091552734375,-55.77850341796875
-0.7489013671875,-0.00390625,-0.038818359375,-68.8018798828125,-26.69525146484375,-56.75506591796875
-0.744140625,-0.0013427734375,-0.0330810546875,-52.1240234375,-14.79339599609375,-51.8646240234375
-0.734130859375,-0.0009765625,-0.0338134765625,-31.60858154296875,-3.1890869140625,-43.1060791015625
-0.7310791015625,-0.0008544921875,-0.0418701171875,-11.0931396484375,7.24029541015625,-32.98187255859375
-0.7362060546875,-0.000244140625,-0.0567626953125,6.0577392578125,15.29693603515625,-22.65167236328125
-0.7462158203125,-0.000244140625,-0.0733642578125,17.4560546875,20.94268798828125,-13.13018798828125
-0.755859375,-0.0013427734375,-0.0894775390625,22.27020263671875,24.58953857421875,-4.92095947265625
-0.7530517578125,-0.00634765625,-0.0992431640625,21.00372314453125,26.64947509765625,2.01416015625
-0.7431640625,-0.0146484375,-0.103515625,15.44189453125,27.618408203125,7.28607177734375
-0.727294921875,-0.0244140625,-0.0968017578125,8.0108642578125,28.1524658203125,10.49041748046875
-0.7203369140625,-0.032958984375,-0.0833740234375,1.97601318359375,28.4271240234375,12.3138427734375
-0.72705078125,-0.037841796875,-0.07275390625,-0.51116943359375,28.05328369140625,13.336181640625
-0.7445068359375,-0.0404052734375,-0.061767578125,1.35040283203125,28.13720703125,14.3890380859375
-0.76513671875,-0.04150390625,-0.051025390625,7.66754150390625,28.60260009765625,16.39556884765625
-0.78759765625,-0.0418701171875,-0.0457763671875,17.40264892578125,28.67889404296875,19.073486328125
-0.8157958984375,-0.0426025390625,-0.045166015625,28.564453125,28.03802490234375,21.484375
-0.832763671875,-0.0443115234375,-0.0462646484375,39.9017333984375,26.702880859375,23.62823486328125
-0.8502197265625,-0.046630859375,-0.05615234375,49.70550537109375,22.9949951171875,23.4527587890625
-0.859619140625,-0.04736328125,-0.06787109375,55.5267333984375,18.5546875,20.965576171875
-0.8775634765625,-0.043701171875,-0.08447265625,56.33544921875,12.14599609375,17.0440673828125
-0.90673828125,-0.0379638671875,-0.1005859375,51.93328857421875,4.87518310546875,12.481689453125
-0.9439697265625,-0.03271484375,-0.116455078125,43.304443359375,-1.4801025390625,8.23211669921875
-0.974609375,-0.0296630859375,-0.1282958984375,32.38677978515625,-5.0506591796875,4.89044189453125
-0.9913330078125,-0.0296630859375,-0.134521484375,20.965576171875,-7.42340087890625,1.28936767578125
-1.007568359375,-0.0296630859375,-0.1363525390625,10.00213623046875,-8.75091552734375,-3.27301025390625
-0.9259033203125,-0.0693359375,-0.515625,-0.3662109375,-10.31494140625,-8.331298828125
-1.0391845703125,-0.054443359375,-0.4041748046875,-51.47552490234375,-12.20703125,-20.4315185546875
-1.106201171875,-0.04443359375,-0.2706298828125,-93.55926513671875,4.69207763671875,-29.6630859375
-1.156494140625,-0.0394287109375,-0.1627197265625,-100.21209716796875,20.172119140625,-30.548095703125
-1.171630859375,-0.04248046875,-0.0760498046875,-76.49993896484375,32.66143798828125,-26.31378173828125
-1.15185546875,-0.0555419921875,-0.1461181640625,-31.5704345703125,42.15240478515625,-22.59063720703125
-1.1383056640625,-0.0550537109375,-0.0845947265625,10.39886474609375,53.64990234375,-20.599365234375
-1.1451416015625,-0.051025390625,-0.0780029296875,57.12127685546875,62.6678466796875,-14.6942138671875
-1.2265625,-0.037841796875,-0.1181640625,99.9908447265625,70.892333984375,-7.8277587890625
-1.323486328125,-0.0234375,-0.23046875,128.936767578125,81.67266845703125,-1.1444091796875
-1.3787841796875,-0.01025390625,-0.2501220703125,133.35418701171875,92.99468994140625,0.1678466796875
-1.3533935546875,-0.009765625,-0.2567138671875,119.80438232421875,98.85406494140625,-4.2724609375
-1.2813720703125,-0.01904296875,-0.25,92.529296875,95.92437744140625,-13.4429931640625
-1.2188720703125,-0.0284423828125,-0.2357177734375,56.7626953125,85.62469482421875,-24.68109130859375
-1.191162109375,-0.0364990234375,-0.2159423828125,20.8282470703125,73.760986328125,-37.19329833984375
-1.13525390625,-0.04931640625,-0.1309814453125,-5.51605224609375,66.83349609375,-48.11859130859375
-1.0958251953125,-0.0413818359375,-0.238525390625,-9.94873046875,64.36920166015625,-41.778564453125
-1.18115234375,-0.0211181640625,-0.1837158203125,8.47625732421875,179.9468994140625,-43.34259033203125
-1.7733154296875,0.4188232421875,1.600341796875,41.99981689453125,249.99237060546875,-45.10498046875
-1.967041015625,0.7354736328125,1.99993896484375,70.465087890625,25.7110595703125,-19.93560791015625
-1.1995849609375,0.814453125,1.7567138671875,93.0328369140625,-181.66351318359375,8.9111328125
-1.080810546875,0.6956787109375,1.4830322265625,101.8218994140625,-109.1461181640625,8.61358642578125
-1.2093505859375,0.5560302734375,1.220947265625,101.0284423828125,-17.23480224609375,-4.730224609375
-1.2490234375,0.4132080078125,0.8837890625,99.34234619140625,28.50341796875,5.06591796875
-1.2310791015625,0.297119140625,0.618408203125,82.98492431640625,18.42498779296875,17.425537109375
-1.2349853515625,0.200927734375,0.4063720703125,55.8929443359375,-30.96771240234375,23.4832763671875
-1.2403564453125,0.133544921875,0.2232666015625,32.89794921875,-83.27484130859375,29.71649169921875
-1.197265625,0.0826416015625,0.0933837890625,20.5841064453125,-108.45947265625,34.9273681640625
-1.162353515625,0.058837890625,0.0452880859375,16.25823974609375,-106.95648193359375,36.3311767578125
-1.1292724609375,0.0401611328125,0.0142822265625,20.04241943359375,-100.89874267578125,40.10009765625
-1.0716552734375,0.01611328125,-0.011962890625,29.97589111328125,-93.63555908203125,53.2073974609375
-1.0098876953125,-0.0093994140625,-0.0408935546875,40.1763916015625,-84.7320556640625,67.840576171875
-0.9671630859375,-0.0277099609375,-0.068115234375,45.12786865234375,-76.47705078125,77.93426513671875
-0.9429931640625,-0.0404052734375,-0.090576171875,42.6025390625,-69.3817138671875,81.50482177734375
-0.9052734375,-0.0513916015625,-0.10693359375,32.379150390625,-65.43731689453125,79.00238037109375
-0.8414306640625,-0.0625,-0.13232421875,15.87677001953125,-65.31524658203125,71.40350341796875
-0.7769775390625,-0.0712890625,-0.1395263671875,-3.60107421875,-63.323974609375,60.27984619140625
-0.7252197265625,-0.0740966796875,-0.131591796875,-22.75848388671875,-60.455322265625,46.85211181640625
-0.6951904296875,-0.075439453125,-0.11279296875,-37.41455078125,-57.6629638671875,33.25653076171875
-0.678466796875,-0.0753173828125,-0.082275390625,-44.5098876953125,-53.680419921875,22.125244140625
-0.680908203125,-0.0733642578125,-0.0513916015625,-43.09844970703125,-49.8199462890625,13.5498046875
-0.7021484375,-0.068603515625,-0.0321044921875,-33.7066650390625,-46.8902587890625,6.927490234375
-0.73095703125,-0.0616455078125,-0.02490234375,-18.1732177734375,-44.219970703125,2.41851806640625
-0.7596435546875,-0.053466796875,-0.03076171875,0.31280517578125,-41.14532470703125,-0.81634521484375
-0.7821044921875,-0.043701171875,-0.047607421875,17.58575439453125,-37.94097900390625,-3.88336181640625
-0.7974853515625,-0.0347900390625,-0.0699462890625,29.8919677734375,-34.0423583984375,-7.110595703125
-0.806396484375,-0.0244140625,-0.0926513671875,35.1409912109375,-29.510498046875,-10.71929931640625
-0.8140869140625,-0.0140380859375,-0.113525390625,33.0657958984375,-24.1851806640625,-15.03753662109375
-0.8221435546875,-0.0035400390625,-0.126708984375,24.71923828125,-17.8375244140625,-19.41680908203125
-0.8287353515625,0.00341796875,-0.130859375,12.176513671875,-11.0015869140625,-22.92633056640625
-0.82958984375,0.0086669921875,-0.126708984375,-1.85394287109375,-3.997802734375,-25.00152587890625
-0.8211669921875,0.155517578125,-0.2982177734375,-20.2484130859375,1.80816650390625,-26.031494140625
-0.8057861328125,0.1087646484375,-0.2012939453125,-57.83843994140625,12.80975341796875,-24.932861328125
-0.807861328125,0.072265625,-0.1236572265625,-78.094482421875,19.61517333984375,-20.13397216796875
-0.821533203125,0.048095703125,-0.0615234375,-77.392578125,23.73504638671875,-13.66424560546875
-0.8343505859375,0.029296875,-0.02001953125,-58.77685546875,28.0609130859375,-5.1422119140625
-0.8475341796875,0.0130615234375,-0.004638671875,-29.4189453125,30.08270263671875,4.38690185546875
-0.860595703125,0.0018310546875,-0.013671875,3.25775146484375,31.27288818359375,12.93182373046875
-0.877197265625,-0.0032958984375,-0.044189453125,31.62384033203125,31.8756103515625,19.317626953125
-0.901611328125,-0.0045166015625,-0.0906982421875,48.828125,32.67669677734375,23.2391357421875
-0.9361572265625,-0.0037841796875,-0.1431884765625,51.361083984375,36.07177734375,24.3072509765625
-0.9754638671875,-0.0035400390625,-0.180419921875,38.7420654296875,43.0145263671875,23.01788330078125
-1.0194091796875,-0.0047607421875,-0.20263671875,14.1143798828125,50.91094970703125,19.83642578125
-1.06591796875,-0.0069580078125,-0.2042236328125,-17.3492431640625,58.9447021484375,15.15960693359375
-1.1092529296875,-0.0106201171875,-0.1883544921875,-49.61395263671875,65.582275390625,10.26153564453125
-1.355712890625,0.2354736328125,0.2916259765625,-77.1484375,66.7572021484375,6.17218017578125
-1.9698486328125,0.7939453125,0.8074951171875,-140.64788818359375,-45.318603515625,12.10784912109375
-1.2314453125,0.7362060546875,1.330078125,-250.0,-229.5074462890625,49.4232177734375
-0.773681640625,0.5294189453125,1.99993896484375,-250.0,-213.89007568359375,54.05426025390625
-0.884033203125,0.37158203125,1.99993896484375,-250.0,-132.14874267578125,35.02655029296875
-0.8536376953125,0.2427978515625,1.8670654296875,-195.15228271484375,-114.2730712890625,32.73773193359375
-0.7393798828125,0.1165771484375,1.392333984375,-92.36907958984375,-99.99847412109375,34.820556640625
-0.706298828125,0.0440673828125,0.9033203125,-0.5950927734375,-64.5904541015625,39.92462158203125
-0.744873046875,0.0113525390625,0.548583984375,62.80517578125,0.732421875,43.12896728515625
-0.8492431640625,0.0155029296875,0.325439453125,93.2159423828125,52.7801513671875,40.15350341796875
-0.968505859375,0.025634765625,0.153076171875,93.69659423828125,65.8416748046875,35.980224609375
-1.032958984375,0.025146484375,0.02001953125,70.8465576171875,56.640625,31.982421875
-1.080810546875,0.024169921875,-0.063232421875,33.28704833984375,47.7294921875,26.91650390625
-1.1036376953125,0.0186767578125,-0.099853515625,-8.23211669921875,50.262451171875,21.81243896484375
-1.152099609375,0.0208740234375,-0.1038818359375,-45.49407958984375,59.3414306640625,17.61627197265625
-1.226318359375,0.0286865234375,-0.0927734375,-73.54736328125,70.33538818359375,16.1895751953125
-1.29638671875,0.0440673828125,-0.0582275390625,-87.15057373046875,84.35821533203125,21.2249755859375
-1.340087890625,0.051513671875,-0.003662109375,-79.04815673828125,95.71075439453125,34.37042236328125
-1.35693359375,0.0576171875,0.030029296875,-59.6160888671875,97.63336181640625,48.76708984375
-1.3408203125,0.06005859375,0.0382080078125,-34.881591796875,88.93585205078125,59.38720703125
-1.2850341796875,0.048583984375,0.02783203125,-7.0953369140625,72.86834716796875,64.68963623046875
-1.224853515625,0.037353515625,0.0098876953125,13.8092041015625,58.60137939453125,61.6455078125
-1.1759033203125,0.03076171875,-0.0054931640625,26.214599609375,48.28643798828125,52.60467529296875
-1.1512451171875,0.0274658203125,-0.0198974609375,30.3497314453125,39.02435302734375,41.31317138671875
-1.0933837890625,0.01611328125,-0.0164794921875,29.2816162109375,32.41729736328125,30.5023193359375
-0.988037109375,-0.0035400390625,-0.0382080078125,26.77154541015625,25.44403076171875,16.76177978515625
-0.926025390625,-0.0211181640625,-0.0223388671875,21.7742919921875,19.683837890625,-0.90789794921875
-0.9168701171875,-0.022216796875,-0.01220703125,18.10455322265625,9.26971435546875,-15.92254638671875
-0.915771484375,-0.0184326171875,-0.018798828125,15.716552734375,-7.0037841796875,-24.932861328125
-0.8897705078125,-0.0162353515625,-0.0277099609375,12.4969482421875,-24.8565673828125,-30.181884765625
-0.897216796875,-0.014404296875,-0.0545654296875,6.6680908203125,-47.3480224609375,-36.61346435546875
-0.8780517578125,-0.023193359375,-0.0819091796875,-2.49481201171875,-67.39044189453125,-43.23577880859375
-0.82470703125,-0.0357666015625,-0.0987548828125,-12.00103759765625,-75.2410888671875,-52.001953125
-0.797119140625,-0.036376953125,-0.09375,-19.29473876953125,-70.83892822265625,-65.0787353515625
-0.787353515625,-0.024658203125,-0.0799560546875,-22.186279296875,-63.3087158203125,-72.784423828125
-0.7786865234375,-0.0103759765625,-0.0718994140625,-19.96612548828125,-57.7392578125,-73.394775390625
-0.7755126953125,0.00244140625,-0.071044921875,-14.5416259765625,-51.90277099609375,-68.68743896484375
-0.779541015625,0.0126953125,-0.079345703125,-8.819580078125,-47.18017578125,-59.34906005859375
-0.7928466796875,0.0203857421875,-0.0931396484375,-5.28717041015625,-42.877197265625,-46.9818115234375
-0.81689453125,0.0234375,-0.10986328125,-5.02777099609375,-38.03253173828125,-32.92083740234375
-0.823486328125,0.0196533203125,-0.120361328125,-7.65228271484375,-30.7769775390625,-19.61517333984375
-0.8148193359375,0.009765625,-0.121337890625,-12.01629638671875,-21.04949951171875,-9.918212890625
-0.802978515625,-0.0013427734375,-0.11376953125,-16.632080078125,-9.88006591796875,-4.2266845703125
-0.798095703125,-0.0118408203125,-0.0989990234375,-19.72198486328125,2.12860107421875,-1.21307373046875
-0.80078125,-0.0206298828125,-0.0794677734375,-19.61517333984375,14.0533447265625,0.4730224609375
-0.80517578125,-0.029052734375,-0.0562744140625,-15.411376953125,24.66583251953125,1.42669677734375
-0.808349609375,-0.0374755859375,-0.03466796875,-6.87408447265625,32.89031982421875,1.68609619140625
-0.8157958984375,-0.0443115234375,-0.0179443359375,5.1116943359375,37.59765625,0.77056884765625
-0.8289794921875,-0.0479736328125,-0.01025390625,18.585205078125,37.86468505859375,-2.15911865234375
-0.84130859375,-0.048583984375,-0.01220703125,31.24237060546875,33.7677001953125,-7.5836181640625
-0.8468017578125,-0.045166015625,-0.0234375,41.107177734375,26.7181396484375,-15.380859375
-0.8507080078125,-0.039306640625,-0.03955078125,47.1954345703125,19.35577392578125,-24.1851806640625
-0.844482421875,-0.0330810546875,-0.0555419921875,49.2095947265625,13.64898681640625,-32.38677978515625
-0.8096923828125,-0.0218505859375,-0.2161865234375,39.83306884765625,9.34600830078125,-41.015625
-0.8370361328125,-0.0167236328125,-0.161865234375,12.01629638671875,17.1661376953125,-51.35345458984375
-0.8614501953125,-0.00830078125,-0.215576171875,-8.70513916015625,24.77264404296875,-57.342529296875
-0.8916015625,-0.0159912109375,-0.2147216796875,-29.12139892578125,33.95843505859375,-60.516357421875
-0.93408203125,-0.015625,-0.132568359375,-39.42108154296875,42.68646240234375,-60.58502197265625
-0.987060546875,-0.0162353515625,-0.07763671875,-30.81512451171875,49.88861083984375,-56.96868896484375
-1.0509033203125,-0.0089111328125,-0.09619140625,-6.4849853515625,56.243896484375,-51.788330078125
-1.1484375,0.0,-0.1082763671875,19.17266845703125,62.2100830078125,-46.48590087890625
-1.2220458984375,0.004150390625,-0.1046142578125,43.2891845703125,70.70159912109375,-41.7327880859375
-1.2669677734375,0.013671875,-0.1806640625,65.8416748046875,76.57623291015625,-38.14697265625
-1.2921142578125,0.016357421875,-0.213623046875,72.3876953125,81.24542236328125,-38.06304931640625
-1.2913818359375,0.0107421875,-0.2135009765625,66.85638427734375,86.2274169921875,-40.4052734375
-1.2781982421875,0.004150390625,-0.217529296875,55.64117431640625,90.15655517578125,-45.37200927734375
-1.2701416015625,-0.001708984375,-0.210693359375,40.35186767578125,94.94781494140625,-52.69622802734375
-1.27490234375,-0.006103515625,-0.2012939453125,23.37646484375,98.0377197265625,-59.783935546875
-1.2945556640625,-0.009765625,-0.198486328125,6.65283203125,96.9085693359375,-65.765380859375
-1.33447265625,-0.010009765625,-0.1904296875,-7.94219970703125,97.5341796875,-72.48687744140625
-1.3704833984375,-0.0062255859375,-0.1688232421875,-17.40264892578125,100.2960205078125,-78.05633544921875
-1.380859375,-0.0040283203125,-0.1485595703125,-18.463134765625,101.0284423828125,-80.05523681640625
-1.3082275390625,0.005615234375,-0.07275390625,-11.04736328125,102.42462158203125,-78.05633544921875
-1.3427734375,0.0185546875,-0.3055419921875,9.552001953125,110.5499267578125,-56.19049072265625
-1.7510986328125,0.10498046875,1.2470703125,33.966064453125,249.99237060546875,-49.4232177734375
-1.80322265625,-0.4644775390625,1.857177734375,249.99237060546875,249.99237060546875,-10.3607177734375
-1.6153564453125,-0.46142578125,0.875732421875,249.99237060546875,208.770751953125,20.68328857421875
-1.506591796875,-0.2518310546875,0.495849609375,249.99237060546875,249.99237060546875,23.406982421875
-1.3585205078125,-0.0440673828125,0.330322265625,249.99237060546875,220.4132080078125,5.53131103515625
-1.121826171875,0.0126953125,-0.1348876953125,249.99237060546875,141.7694091796875,-17.23480224609375
-0.923095703125,-0.0196533203125,-0.3565673828125,249.99237060546875,89.1876220703125,-52.886962890625
-0.887939453125,-0.0653076171875,-0.116943359375,82.21435546875,28.3203125,-98.93798828125
-1.0123291015625,-0.03955078125,0.2928466796875,-136.932373046875,-70.86181640625,-133.26263427734375
-1.019775390625,-0.0443115234375,0.2017822265625,-244.39239501953125,-159.96551513671875,-142.669677734375
-0.9178466796875,-0.0697021484375,0.0948486328125,-250.0,-197.59368896484375,-144.53125
-0.893798828125,-0.087890625,0.0433349609375,-250.0,-197.25799560546875,-147.97210693359375
-0.888916015625,-0.0897216796875,0.0711669921875,-250.0,-172.32513427734375,-141.2200927734375
-0.915771484375,-0.0771484375,0.1087646484375,-250.0,-157.70721435546875,-121.65069580078125
-0.9549560546875,-0.0699462890625,0.1221923828125,-250.0,-153.77044677734375,-94.55108642578125
-0.9654541015625,-0.0770263671875,0.115966796875,-199.45526123046875,-148.773193359375,-62.72125244140625
-0.9512939453125,-0.0869140625,0.097412109375,-116.4093017578125,-139.54925537109375,-31.44073486328125
-0.9459228515625,-0.0909423828125,0.051513671875,-34.5611572265625,-131.38580322265625,-4.03594970703125
-0.9423828125,-0.091064453125,-0.0172119140625,34.5916748046875,-124.20654296875,20.17974853515625
-0.926513671875,-0.0888671875,-0.0938720703125,82.000732421875,-116.8060302734375,39.398193359375
-0.89404296875,-0.0858154296875,-0.1630859375,103.0731201171875,-109.3902587890625,50.42266845703125
-0.85009765625,-0.0806884765625,-0.2227783203125,97.58758544921875,-104.00390625,52.10113525390625
-0.802490234375,-0.0765380859375,-0.2640380859375,68.4814453125,-100.04425048828125,45.654296875
-0.7655029296875,-0.073974609375,-0.275146484375,23.12469482421875,-95.02410888671875,34.08050537109375
-0.741943359375,-0.0743408203125,-0.2584228515625,-27.40478515625,-88.24920654296875,20.843505859375
-0.7374267578125,-0.0750732421875,-0.21484375,-72.22747802734375,-80.71136474609375,8.4381103515625
-0.744140625,-0.07373046875,-0.1588134765625,-102.1270751953125,-73.5015869140625,0.0
-0.755859375,-0.0714111328125,-0.1075439453125,-111.79351806640625,-66.2994384765625,-2.4871826171875
-0.7703857421875,-0.0706787109375,-0.065185546875,-101.01318359375,-57.8460693359375,1.4190673828125
-0.7838134765625,-0.0745849609375,-0.044189453125,-73.1201171875,-47.82867431640625,10.68878173828125
-0.7979736328125,-0.0802001953125,-0.0450439453125,-35.64453125,-35.9039306640625,22.52960205078125
-0.8135986328125,-0.0849609375,-0.067626953125,2.74658203125,-22.92633056640625,34.35516357421875
-0.8316650390625,-0.0875244140625,-0.1043701171875,33.94317626953125,-9.3841552734375,43.93768310546875
-0.847900390625,-0.0875244140625,-0.1444091796875,52.0477294921875,4.23431396484375,50.17852783203125
-0.864990234375,-0.08642578125,-0.1810302734375,54.3060302734375,16.63970947265625,52.42156982421875
-0.880126953125,-0.0859375,-0.2091064453125,41.20635986328125,26.39007568359375,51.01776123046875
-0.8804931640625,-0.0882568359375,-0.2177734375,16.1895751953125,33.14208984375,46.79107666015625
-0.8721923828125,-0.0927734375,-0.2080078125,-14.923095703125,36.97967529296875,40.2984619140625
-0.8609619140625,-0.09765625,-0.1812744140625,-45.64666748046875,38.06304931640625,32.85980224609375
-0.85302734375,-0.1009521484375,-0.1483154296875,-69.81658935546875,37.1246337890625,26.336669921875
-0.853271484375,-0.1007080078125,-0.11376953125,-83.43505859375,35.7208251953125,22.03369140625
-0.856201171875,-0.0985107421875,-0.0841064453125,-84.93804931640625,34.637451171875,21.0418701171875
-0.860595703125,-0.0953369140625,-0.0643310546875,-75.6683349609375,34.00421142578125,23.223876953125
-0.8714599609375,-0.091796875,-0.0595703125,-59.19647216796875,33.0047607421875,28.11431884765625
-0.896728515625,-0.08935546875,-0.0751953125,-40.24505615234375,32.073974609375,34.61456298828125
-0.931884765625,-0.08642578125,-0.100341796875,-23.82659912109375,32.85980224609375,41.80145263671875
-0.974365234375,-0.0872802734375,-0.1258544921875,-13.78631591796875,34.70611572265625,48.9044189453125
-1.1602783203125,-0.67626953125,0.5850830078125,-2.2735595703125,27.42767333984375,53.9703369140625
-1.3558349609375,-1.00927734375,0.984375,84.47265625,-20.24078369140625,53.38287353515625
-1.287353515625,-0.876953125,0.797119140625,227.0965576171875,-68.56536865234375,54.92401123046875
-1.1318359375,-0.6708984375,0.34912109375,249.99237060546875,-92.70477294921875,56.1065673828125
-1.062744140625,-0.4677734375,0.0704345703125,249.99237060546875,-93.13201904296875,47.7294921875
-1.1165771484375,-0.3006591796875,0.207275390625,249.99237060546875,-86.28082275390625,37.16278076171875
-1.1717529296875,-0.170166015625,0.31298828125,217.132568359375,-86.8682861328125,37.841796875
-1.137939453125,-0.0814208984375,0.167236328125,165.24505615234375,-80.05523681640625,44.86846923828125
-1.14892578125,-0.0345458984375,0.2493896484375,90.087890625,-54.54254150390625,51.1322021484375
-1.11572265625,-0.013427734375,0.1671142578125,21.881103515625,-23.93341064453125,53.09295654296875
-1.137939453125,-0.0264892578125,0.2249755859375,-53.955078125,7.14111328125,50.4608154296875
-1.254638671875,-0.06298828125,0.512451171875,-117.04254150390625,20.02716064453125,49.072265625
-1.28173828125,-0.0814208984375,0.4376220703125,-128.204345703125,21.820068359375,55.24444580078125
-1.303466796875,-0.0616455078125,0.1920166015625,-139.12200927734375,34.40093994140625,56.5948486328125
-1.3193359375,-0.0628662109375,0.0076904296875,-181.22100830078125,52.581787109375,54.0313720703125
-1.2811279296875,-0.0909423828125,0.0394287109375,-243.6370849609375,71.136474609375,47.08099365234375
-1.2391357421875,-0.2213134765625,0.1314697265625,-250.0,70.15228271484375,31.10504150390625
-1.224853515625,-0.368896484375,0.1251220703125,-250.0,44.2047119140625,2.349853515625
-1.2264404296875,-0.3118896484375,0.133056640625,-250.0,8.81195068359375,-29.3731689453125
-1.18603515625,-0.2315673828125,0.1607666015625,-250.0,-21.82769775390625,-49.5452880859375
-1.1522216796875,-0.1673583984375,0.177001953125,-250.0,-47.59979248046875,-59.9365234375
-1.1405029296875,-0.1202392578125,0.177734375,-223.42681884765625,-70.82366943359375,-62.0574951171875
-1.1146240234375,-0.083740234375,0.145751953125,-151.0162353515625,-87.3565673828125,-56.6864013671875
-1.0740966796875,-0.0604248046875,0.102294921875,-75.775146484375,-93.0328369140625,-45.00579833984375
-1.0318603515625,-0.0421142578125,0.02880859375,-9.19342041015625,-95.0775146484375,-29.41131591796875
-0.9737548828125,-0.027099609375,-0.068603515625,39.02435302734375,-90.5914306640625,-14.8773193359375
-0.9044189453125,-0.0177001953125,-0.1531982421875,61.5386962890625,-71.7010498046875,-7.04193115234375
-0.8502197265625,-0.0118408203125,-0.1973876953125,57.525634765625,-42.6483154296875,-8.48388671875
-0.8541259765625,-0.0006103515625,-0.2119140625,32.9437255859375,-14.862060546875,-15.61737060546875
-0.8934326171875,0.0108642578125,-0.200927734375,-3.05938720703125,6.744384765625,-22.42279052734375
-0.92724609375,0.0162353515625,-0.1724853515625,-41.66412353515625,21.72088623046875,-26.30615234375
-0.9366455078125,0.011474609375,-0.125244140625,-76.35498046875,29.16717529296875,-27.9998779296875
-0.9205322265625,0.001953125,-0.076171875,-101.4404296875,27.496337890625,-27.68707275390625
-0.90478515625,-0.004638671875,-0.043701171875,-113.7847900390625,19.59228515625,-27.83966064453125
-0.89013671875,-0.0064697265625,-0.0235595703125,-114.5477294921875,10.6658935546875,-29.2816162109375
-0.875,-0.00439453125,-0.0164794921875,-106.55975341796875,2.99072265625,-29.04510498046875
-0.8460693359375,-0.0032958984375,-0.0159912109375,-93.08624267578125,-3.0059814453125,-25.59661865234375
-0.812255859375,-0.0037841796875,-0.0306396484375,-78.05633544921875,-8.5296630859375,-19.8822021484375
-0.7852783203125,-0.00341796875,-0.054443359375,-64.90325927734375,-11.34490966796875,-12.9547119140625
-0.7724609375,-0.0032958984375,-0.079345703125,-55.67169189453125,-8.91876220703125,-6.195068359375
-0.77099609375,-0.003662109375,-0.1043701171875,-51.39923095703125,-1.74713134765625,-0.0457763671875
-0.75927734375,-0.0076904296875,-0.1220703125,-52.60467529296875,8.85009765625,5.0811767578125
-0.780517578125,-0.009033203125,-0.127685546875,-58.4869384765625,22.25494384765625,7.48443603515625
-0.81494140625,-0.0076904296875,-0.1064453125,-66.16973876953125,36.224365234375,11.19232177734375
-0.8514404296875,-0.0098876953125,-0.09033203125,-71.11358642578125,44.097900390625,16.99066162109375
-0.869384765625,-0.016845703125,-0.0740966796875,-73.150634765625,46.80633544921875,23.7884521484375
-0.8704833984375,-0.026611328125,-0.0606689453125,-72.44873046875,44.62432861328125,29.23583984375
-0.8770751953125,-0.0345458984375,-0.0548095703125,-68.359375,39.8406982421875,31.59332275390625
-0.8839111328125,-0.039794921875,-0.0528564453125,-61.14959716796875,35.48431396484375,31.88323974609375
-0.900634765625,-0.042236328125,-0.0556640625,-52.04010009765625,31.25762939453125,30.3497314453125
-0.9029541015625,-0.0421142578125,-0.0648193359375,-42.53387451171875,27.38189697265625,27.9998779296875
-0.8974609375,-0.042236328125,-0.0616455078125,-32.7301025390625,27.4200439453125,27.61077880859375
-0.875732421875,-0.0479736328125,-0.0640869140625,-21.5911865234375,28.6712646484375,30.4412841796875
-0.8331298828125,-0.0631103515625,-0.2198486328125,-18.2342529296875,28.62548828125,31.27288818359375
-0.825439453125,-0.068359375,-0.168212890625,-34.4390869140625,35.66741943359375,26.30615234375
-0.8343505859375,-0.1365966796875,-0.1849365234375,-42.44232177734375,41.6259765625,21.514892578125
-0.853271484375,-0.122802734375,-0.209228515625,-32.06634521484375,46.6156005859375,21.35467529296875
-0.907958984375,-0.1016845703125,-0.16796875,-21.8048095703125,54.4281005859375,19.53887939453125
-0.9532470703125,-0.0836181640625,-0.1312255859375,-11.90185546875,60.38665771484375,18.89801025390625
-1.0120849609375,-0.070556640625,-0.1229248046875,-1.129150390625,59.600830078125,20.08056640625
-1.07666015625,-0.0572509765625,-0.1251220703125,7.049560546875,56.32781982421875,22.6287841796875
-1.13232421875,-0.045166015625,-0.1275634765625,12.47406005859375,53.1005859375,26.28326416015625
-1.1688232421875,-0.037353515625,-0.133056640625,15.350341796875,48.69842529296875,30.46417236328125
-1.1824951171875,-0.0347900390625,-0.13671875,15.22064208984375,43.86138916015625,34.97314453125
-1.1593017578125,-0.0394287109375,-0.1400146484375,12.51983642578125,39.69573974609375,37.384033203125
-1.109130859375,-0.051025390625,-0.1448974609375,7.37762451171875,37.4298095703125,36.21673583984375
-1.063720703125,-0.0614013671875,-0.152587890625,-0.12969970703125,38.330078125,31.6314697265625
-1.0467529296875,-0.066650390625,-0.15283203125,-9.8114013671875,43.05267333984375,24.4140625
-1.1016845703125,-0.0601806640625,-0.1552734375,-20.20263671875,49.1943359375,17.669677734375
-1.155029296875,-0.0533447265625,-0.1513671875,-29.8919677734375,54.7332763671875,14.32037353515625
-1.176025390625,-0.0504150390625,-0.13720703125,-37.2772216796875,58.12835693359375,12.22991943359375
-1.1973876953125,-0.0540771484375,-0.1348876953125,-42.205810546875,56.9305419921875,9.88006591796875
-1.2349853515625,-0.04931640625,-0.121826171875,-45.84503173828125,54.11529541015625,8.056640625
-1.268798828125,-0.04345703125,-0.1756591796875,-45.4254150390625,50.74310302734375,16.45660400390625
-1.321533203125,-0.03125,-0.222900390625,-39.95513916015625,97.32818603515625,30.86090087890625
-1.5308837890625,0.0208740234375,0.8414306640625,-30.9600830078125,185.72235107421875,28.9154052734375
-1.5047607421875,-0.00244140625,1.4052734375,99.2279052734375,110.7025146484375,45.0286865234375
-1.6097412109375,0.0244140625,1.6649169921875,249.99237060546875,-61.1724853515625,48.9501953125
-1.3472900390625,0.0772705078125,1.5272216796875,249.99237060546875,-124.664306640625,56.93817138671875
-1.216552734375,0.14501953125,0.9117431640625,249.99237060546875,-90.82794189453125,64.2242431640625
-1.2303466796875,0.1514892578125,0.513916015625,172.30987548828125,-53.68804931640625,47.52349853515625
-1.2587890625,0.093994140625,0.224365234375,3.07464599609375,-24.28436279296875,20.477294921875
-1.2530517578125,0.01513671875,0.09033203125,-168.57147216796875,-21.8963623046875,-13.52691650390625
-1.198974609375,-0.0595703125,0.061767578125,-250.0,-43.45703125,-46.08917236328125
-1.159423828125,-0.1070556640625,0.0894775390625,-250.0,-68.59588623046875,-74.3865966796875
-1.1429443359375,-0.120849609375,0.147216796875,-250.0,-84.66339111328125,-93.84918212890625
-1.1451416015625,-0.1092529296875,0.20263671875,-250.0,-92.94891357421875,-100.1434326171875
-1.1419677734375,-0.0887451171875,0.243408203125,-250.0,-94.940185546875,-91.949462890625
-1.136474609375,-0.0726318359375,0.2530517578125,-250.0,-92.9412841796875,-70.77789306640625
-1.12255859375,-0.07080078125,0.2305908203125,-141.28875732421875,-88.76800537109375,-41.03851318359375
-1.12744140625,-0.0703125,0.1571044921875,-26.1383056640625,-85.38055419921875,-8.52203369140625
-1.0968017578125,-0.0758056640625,0.05517578125,68.73321533203125,-83.44268798828125,21.33941650390625
-1.076171875,-0.07177734375,-0.0618896484375,130.157470703125,-81.73370361328125,43.84613037109375
-1.0396728515625,-0.0679931640625,-0.1710205078125,153.472900390625,-76.35498046875,57.220458984375
-0.9945068359375,-0.060546875,-0.25,139.32037353515625,-68.54248046875,60.1654052734375
-0.9566650390625,-0.056396484375,-0.299072265625,92.46826171875,-64.41497802734375,53.5888671875
-0.912841796875,-0.060302734375,-0.3184814453125,23.4832763671875,-64.46075439453125,39.16168212890625
-0.8935546875,-0.0662841796875,-0.298095703125,-55.5572509765625,-67.02423095703125,19.2718505859375
-0.894775390625,-0.0738525390625,-0.249755859375,-130.2642822265625,-72.56317138671875,-1.02996826171875
-0.89501953125,-0.0811767578125,-0.178466796875,-187.8814697265625,-80.40618896484375,-17.4560546875
-0.902099609375,-0.08349609375,-0.1080322265625,-219.8486328125,-89.813232421875,-29.4036865234375
-0.9248046875,-0.0806884765625,-0.04638671875,-223.83880615234375,-98.03009033203125,-36.47613525390625
-0.9476318359375,-0.07373046875,-0.0054931640625,-202.29339599609375,-104.6295166015625,-38.16986083984375
-0.9625244140625,-0.0667724609375,0.009521484375,-162.68157958984375,-109.00115966796875,-35.83526611328125
-0.967529296875,-0.05908203125,-0.000732421875,-115.142822265625,-111.81640625,-30.8685302734375
-0.9630126953125,-0.05224609375,-0.036376953125,-69.3817138671875,-114.69268798828125,-24.322509765625
-0.9541015625,-0.0440673828125,-0.0927734375,-33.599853515625,-116.058349609375,-18.11981201171875
-0.9417724609375,-0.03662109375,-0.154296875,-14.12200927734375,-112.70904541015625,-13.80157470703125
-0.927490234375,-0.0299072265625,-0.20458984375,-13.67950439453125,-105.28564453125,-11.9476318359375
-0.8966064453125,-0.013916015625,-0.3248291015625,-32.379150390625,-97.320556640625,-12.64190673828125
-0.8797607421875,-0.01416015625,-0.3282470703125,-69.69451904296875,-85.052490234375,-15.9149169921875
-0.8646240234375,-0.025390625,-0.2884521484375,-107.53631591796875,-69.0765380859375,-19.58465576171875
-0.85498046875,-0.0352783203125,-0.2373046875,-139.79339599609375,-55.06134033203125,-24.1546630859375
-0.8505859375,-0.0408935546875,-0.1837158203125,-161.6668701171875,-44.25811767578125,-27.6641845703125
-0.84814453125,-0.04345703125,-0.134765625,-170.166015625,-35.7818603515625,-28.9459228515625
-0.856689453125,-0.04248046875,-0.0965576171875,-164.947509765625,-28.7017822265625,-28.3660888671875
-0.863525390625,-0.0386962890625,-0.0701904296875,-148.38409423828125,-22.52197265625,-25.26092529296875
-0.8660888671875,-0.0343017578125,-0.0626220703125,-124.83978271484375,-18.25714111328125,-19.8822021484375
-0.8609619140625,-0.02734375,-0.0762939453125,-100.4180908203125,-15.63262939453125,-12.88604736328125
-0.8541259765625,-0.021728515625,-0.102783203125,-81.4361572265625,-12.7410888671875,-5.33294677734375
-0.855712890625,-0.0166015625,-0.1329345703125,-71.76971435546875,-8.67462158203125,0.9918212890625
-0.873046875,-0.0128173828125,-0.1661376953125,-72.998046875,-4.7760009765625,6.4544677734375
-0.9090576171875,-0.009521484375,-0.1942138671875,-84.5794677734375,0.213623046875,11.40594482421875
-0.947021484375,-0.010009765625,-0.212890625,-104.18701171875,6.439208984375,17.12799072265625
-0.99853515625,-0.0169677734375,-0.21728515625,-128.2196044921875,13.60321044921875,22.65167236328125
-1.0438232421875,-0.02685546875,-0.2052001953125,-152.008056640625,20.91217041015625,29.51812744140625
-1.0792236328125,-0.0396728515625,-0.18310546875,-170.44830322265625,26.0772705078125,37.353515625
-1.10107421875,-0.053466796875,-0.154541015625,-179.74090576171875,30.32684326171875,44.96002197265625
-1.1185302734375,-0.0654296875,-0.128173828125,-179.2449951171875,33.26416015625,51.81884765625
-1.1248779296875,-0.072021484375,-0.1097412109375,-169.74639892578125,34.60693359375,57.891845703125
-1.1302490234375,-0.0733642578125,-0.1016845703125,-154.7698974609375,34.47723388671875,63.720703125
-1.1534423828125,-0.0692138671875,-0.107421875,-138.275146484375,33.1573486328125,69.08416748046875
-1.1754150390625,-0.0635986328125,-0.122314453125,-123.84033203125,31.22711181640625,74.951171875
-1.17578125,-0.0562744140625,-0.133544921875,-114.28070068359375,29.998779296875,80.657958984375
-1.156982421875,-0.0517578125,-0.14111328125,-110.43548583984375,27.39715576171875,85.0372314453125
-1.12646484375,-0.0506591796875,-0.150146484375,-112.22076416015625,23.42987060546875,87.45574951171875
-1.0819091796875,-0.05322265625,-0.150146484375,-119.5526123046875,19.500732421875,87.48626708984375
-1.029541015625,-0.0574951171875,-0.14404296875,-131.00433349609375,14.25933837890625,84.81597900390625
-0.9810791015625,-0.060791015625,-0.1387939453125,-144.622802734375,7.415771484375,79.9560546875
-0.9344482421875,-0.0635986328125,-0.1290283203125,-158.48541259765625,0.99945068359375,74.21112060546875
-0.888916015625,-0.0665283203125,-0.1175537109375,-170.7000732421875,-4.38690185546875,68.6492919921875
-0.8609619140625,-0.0677490234375,-0.1082763671875,-180.2978515625,-8.90350341796875,64.178466796875
-0.854736328125,-0.065673828125,-0.10302734375,-186.859130859375,-11.90948486328125,61.39373779296875
-0.8740234375,-0.0604248046875,-0.09814453125,-190.338134765625,-13.06915283203125,61.24114990234375
-0.9072265625,-0.0545654296875,-0.0972900390625,-191.10107421875,-14.06097412109375,63.8580322265625
-0.9598388671875,-0.0460205078125,-0.097412109375,-189.52178955078125,-12.68768310546875,68.70269775390625
-1.005126953125,-0.04248046875,-0.0948486328125,-186.37847900390625,-9.51385498046875,76.39312744140625
-1.0556640625,-0.0391845703125,-0.0926513671875,-182.38067626953125,-7.53021240234375,84.7625732421875
-1.085205078125,-0.041015625,-0.15087890625,-180.6640625,-7.75146484375,91.5985107421875
-1.114990234375,-0.0455322265625,-0.1776123046875,-183.65478515625,-6.29425048828125,94.38323974609375
-1.142333984375,-0.051025390625,-0.1932373046875,-188.6749267578125,-7.0037841796875,92.529296875
-1.154541015625,-0.0537109375,-0.19189453125,-196.136474609375,-7.110595703125,85.38055419921875
-1.142822265625,-0.0548095703125,-0.17431640625,-201.69830322265625,-7.66754150390625,75.27923583984375
-1.1153564453125,-0.0556640625,-0.1385498046875,-202.1484375,-7.3699951171875,64.14031982421875
-1.080078125,-0.0570068359375,-0.0963134765625,-195.220947265625,-6.20269775390625,53.77197265625
-1.040283203125,-0.0572509765625,-0.05615234375,-180.53436279296875,-3.56292724609375,45.72296142578125
-1.0106201171875,-0.0556640625,-0.03125,-159.84344482421875,-0.4425048828125,39.98565673828125
-0.9937744140625,-0.0501708984375,-0.0240478515625,-136.45172119140625,3.41796875,34.76715087890625
-0.982421875,-0.04248046875,-0.029296875,-114.0289306640625,8.392333984375,28.5797119140625
-0.9669189453125,-0.0338134765625,-0.0406494140625,-95.9625244140625,14.51873779296875,21.65985107421875
-0.9454345703125,-0.025390625,-0.06689453125,-84.7625732421875,21.01898193359375,14.862060546875
-0.9283447265625,-0.017578125,-0.0775146484375,-81.6497802734375,28.0303955078125,8.270263671875
-0.9093017578125,-0.01220703125,-0.08642578125,-85.1287841796875,35.5987548828125,2.5787353515625
-0.8948974609375,-0.0072021484375,-0.0880126953125,-93.72711181640625,43.73931884765625,-2.2735595703125
-0.8885498046875,-0.003662109375,-0.08349609375,-105.23223876953125,51.7730712890625,-5.79071044921875
-0.8905029296875,-0.002197265625,-0.0765380859375,-117.37060546875,58.84552001953125,-8.1787109375
-0.902099609375,-0.001220703125,-0.0631103515625,-128.1585693359375,65.3839111328125,-9.521484375
-0.917236328125,-0.0020751953125,-0.052490234375,-135.8795166015625,70.587158203125,-9.5062255859375
-0.934814453125,-0.005615234375,-0.055908203125,-140.4571533203125,75.1953125,-8.93402099609375
-0.960205078125,-0.0078125,-0.053955078125,-141.632080078125,79.24652099609375,-8.32366943359375
-0.9852294921875,-0.0072021484375,-0.0518798828125,-138.885498046875,82.0770263671875,-7.0343017578125
-1.0079345703125,-0.009521484375,-0.0455322265625,-132.99560546875,84.78546142578125,-5.37109375
-1.0260009765625,-0.0098876953125,-0.0472412109375,-124.09210205078125,86.34185791015625,-3.60870361328125
-1.0543212890625,-0.0072021484375,-0.051025390625,-113.73138427734375,87.9974365234375,-2.89154052734375
-1.0772705078125,-0.0042724609375,-0.0513916015625,-103.485107421875,89.324951171875,-1.77001953125
-1.087646484375,-0.003662109375,-0.052978515625,-93.994140625,90.12603759765625,-0.5035400390625
-1.0938720703125,-0.0037841796875,-0.0567626953125,-86.09771728515625,90.78216552734375,0.03814697265625
-1.0914306640625,-0.00390625,-0.058837890625,-80.45196533203125,90.61431884765625,-0.11444091796875
-1.0830078125,-0.0048828125,-0.0625,-77.17132568359375,89.7064208984375,-1.01470947265625
-1.0574951171875,0.000244140625,-0.0562744140625,-76.36260986328125,89.0655517578125,-1.16729736328125
-1.0491943359375,-0.005126953125,-0.0975341796875,-78.643798828125,89.56146240234375,6.5460205078125
-1.048095703125,-0.015869140625,-0.0985107421875,-85.3118896484375,105.27801513671875,12.07733154296875
-1.0489501953125,-0.02978515625,-0.0877685546875,-94.33746337890625,120.47576904296875,14.48822021484375
-1.0469970703125,-0.0445556640625,-0.0716552734375,-102.264404296875,129.9285888671875,14.25933837890625
-1.0435791015625,-0.0589599609375,-0.0589599609375,-106.92596435546875,133.73565673828125,10.894775390625
-1.1866455078125,-0.1810302734375,0.6329345703125,-97.625732421875,121.91009521484375,7.7362060546875
-1.2701416015625,-0.2747802734375,0.7037353515625,-20.843505859375,41.00799560546875,15.98358154296875
-1.1849365234375,-0.2342529296875,0.635009765625,63.24005126953125,-26.9317626953125,14.44244384765625
-1.0260009765625,-0.14453125,0.4635009765625,128.8604736328125,-43.37310791015625,5.28717041015625
-0.9598388671875,-0.0614013671875,0.34521484375,153.34320068359375,-12.4359130859375,-4.5013427734375
-1.002197265625,-0.007080078125,0.257568359375,137.04681396484375,24.95574951171875,-12.41302490234375
-1.026611328125,0.0113525390625,0.09912109375,88.60015869140625,49.62921142578125,-23.62823486328125
-1.0238037109375,0.0042724609375,-0.0306396484375,11.52801513671875,62.4542236328125,-40.58074951171875
-1.029541015625,-0.01025390625,-0.03857421875,-78.9031982421875,63.720703125,-60.36376953125
-1.048828125,-0.013427734375,0.0870361328125,-156.25762939453125,51.41448974609375,-78.42254638671875
-1.061279296875,-0.0167236328125,0.1102294921875,-196.1669921875,30.34210205078125,-90.82794189453125
-1.06201171875,-0.02099609375,0.1024169921875,-206.52008056640625,11.1846923828125,-97.78594970703125
-1.0548095703125,-0.024169921875,0.103759765625,-195.7244873046875,-2.66265869140625,-100.31890869140625
-1.05029296875,-0.0224609375,0.097900390625,-167.03033447265625,-12.542724609375,-99.54071044921875
-1.0538330078125,-0.01806640625,0.074951171875,-126.4190673828125,-18.707275390625,-96.0540771484375
-1.052734375,-0.0111083984375,0.0399169921875,-81.7108154296875,-20.416259765625,-90.18707275390625
-1.0452880859375,-0.0037841796875,-0.0091552734375,-40.77911376953125,-19.21844482421875,-83.709716796875
-1.02734375,0.0042724609375,-0.1585693359375,-11.45172119140625,-17.32635498046875,-78.30047607421875
-1.0343017578125,0.0133056640625,-0.1796875,-4.41741943359375,-13.19122314453125,-75.30975341796875
-1.065185546875,0.0198974609375,-0.1986083984375,-10.56671142578125,-6.34002685546875,-72.4639892578125
-1.10400390625,0.0247802734375,-0.203857421875,-25.2685546875,-0.26702880859375,-69.488525390625
-1.1444091796875,0.02490234375,-0.20654296875,-44.44122314453125,3.692626953125,-67.02423095703125
-1.1688232421875,0.0179443359375,-0.1907958984375,-63.8275146484375,7.1868896484375,-65.9332275390625
-1.1859130859375,0.0113525390625,-0.170166015625,-78.643798828125,9.75799560546875,-66.864013671875
-1.226806640625,0.0062255859375,-0.145751953125,-85.1593017578125,12.32147216796875,-68.0694580078125
-1.2498779296875,-0.0015869140625,-0.1177978515625,-81.3751220703125,14.95361328125,-66.96319580078125
-1.25634765625,-0.0103759765625,-0.090576171875,-68.35174560546875,15.80810546875,-66.6351318359375
-1.26171875,-0.0107421875,-0.0819091796875,-49.01123046875,11.6424560546875,-69.244384765625
-1.2545166015625,-0.0096435546875,-0.1279296875,-29.38079833984375,4.28009033203125,-74.63836669921875
-1.2430419921875,-0.001708984375,-0.128662109375,-13.48114013671875,-2.9144287109375,-80.2764892578125
-1.2183837890625,0.0067138671875,-0.1361083984375,-0.518798828125,-9.5977783203125,-84.7625732421875
-1.1890869140625,0.0130615234375,-0.1611328125,6.34002685546875,-16.65496826171875,-87.646484375
-1.15625,0.017578125,-0.1773681640625,4.31060791015625,-21.11053466796875,-89.996337890625
-1.1260986328125,0.021728515625,-0.18310546875,-4.66156005859375,-22.94921875,-92.6513671875
-1.1068115234375,0.025146484375,-0.18505859375,-18.16558837890625,-25.74920654296875,-95.0927734375
-1.082275390625,0.0255126953125,-0.1712646484375,-32.8826904296875,-28.64837646484375,-95.8709716796875
-1.04052734375,0.0218505859375,-0.1558837890625,-44.44122314453125,-31.1737060546875,-95.10040283203125
-0.9923095703125,0.017333984375,-0.1309814453125,-51.04827880859375,-32.1197509765625,-92.90313720703125
-0.9305419921875,0.011962890625,-0.120849609375,-52.17742919921875,-34.1796875,-88.348388671875
-0.88525390625,0.0108642578125,-0.08984375,-48.553466796875,-38.9404296875,-81.29119873046875
-0.849365234375,0.0096435546875,-0.08349609375,-39.093017578125,-45.61614990234375,-71.59423828125
-0.8231201171875,0.0084228515625,-0.0867919921875,-26.153564453125,-51.50604248046875,-60.546875
-0.80224609375,0.009033203125,-0.091064453125,-12.298583984375,-54.7027587890625,-49.43084716796875
-0.786865234375,0.0101318359375,-0.103759765625,-0.63323974609375,-56.15997314453125,-38.8031005859375
-0.7703857421875,0.0093994140625,-0.1134033203125,6.4544677734375,-57.21282958984375,-28.045654296875
-0.7576904296875,0.0093994140625,-0.125732421875,8.56781005859375,-58.8226318359375,-17.2576904296875
-0.76416015625,0.0096435546875,-0.1392822265625,5.07354736328125,-59.89837646484375,-6.08062744140625
-0.7825927734375,0.0040283203125,-0.1524658203125,-2.9754638671875,-59.83734130859375,6.44683837890625
-0.8134765625,-0.0042724609375,-0.154296875,-13.48114013671875,-59.36431884765625,18.27239990234375
-0.85546875,-0.0107421875,-0.15380859375,-23.8189697265625,-58.990478515625,29.28924560546875
-0.8983154296875,-0.018798828125,-0.1502685546875,-32.00531005859375,-58.86077880859375,40.70281982421875
-0.929931640625,-0.0283203125,-0.1480712890625,-37.04071044921875,-59.51690673828125,51.90277099609375
-0.9599609375,-0.0364990234375,-0.1502685546875,-38.970947265625,-61.09619140625,61.70654296875
-0.9892578125,-0.0443115234375,-0.1552734375,-38.68865966796875,-63.89617919921875,70.0836181640625
-1.0147705078125,-0.052734375,-0.15234375,-36.92626953125,-67.2607421875,77.00347900390625
-1.03369140625,-0.0587158203125,-0.1531982421875,-33.54644775390625,-71.10595703125,82.52716064453125
-1.041259765625,-0.0650634765625,-0.15478515625,-30.23529052734375,-75.775146484375,86.73858642578125
-1.0399169921875,-0.069580078125,-0.166015625,-28.7322998046875,-80.5816650390625,89.08843994140625
-1.0325927734375,-0.073486328125,-0.1697998046875,-30.23529052734375,-84.7320556640625,89.50042724609375
-1.02685546875,-0.072998046875,-0.178466796875,-34.78240966796875,-88.12713623046875,88.409423828125
-1.016845703125,-0.0728759765625,-0.180419921875,-41.595458984375,-90.5303955078125,87.127685546875
-1.0006103515625,-0.072021484375,-0.1873779296875,-49.041748046875,-91.85028076171875,86.2579345703125
-0.987548828125,-0.071044921875,-0.1866455078125,-56.44989013671875,-90.75164794921875,85.3424072265625
-0.977294921875,-0.070068359375,-0.184326171875,-62.70599365234375,-88.775634765625,84.83123779296875
-0.9754638671875,-0.070068359375,-0.1754150390625,-67.26837158203125,-86.24267578125,85.02960205078125
-0.962158203125,-0.0716552734375,-0.17333984375,-68.756103515625,-84.0911865234375,86.12060546875
-0.95166015625,-0.073974609375,-0.172119140625,-67.2607421875,-79.4219970703125,87.22686767578125
-0.9385986328125,-0.0765380859375,-0.166015625,-63.34686279296875,-71.9146728515625,87.74566650390625
-0.9461669921875,-0.077880859375,-0.1656494140625,-57.07550048828125,-63.01116943359375,88.02032470703125
-0.9420166015625,-0.0791015625,-0.1630859375,-49.62158203125,-52.42156982421875,88.99688720703125
-0.9508056640625,-0.077880859375,-0.15869140625,-41.56494140625,-39.90936279296875,89.07318115234375
-0.95361328125,-0.0758056640625,-0.14990234375,-35.04180908203125,-28.92303466796875,87.799072265625
-0.9512939453125,-0.073974609375,-0.1490478515625,-31.71539306640625,-23.956298828125,85.86883544921875
-0.9444580078125,-0.074951171875,-0.1546630859375,-31.28814697265625,-21.76666259765625,83.8470458984375
-0.9371337890625,-0.07861328125,-0.162109375,-32.9742431640625,-16.9219970703125,81.59637451171875
-0.92626953125,-0.0828857421875,-0.1649169921875,-36.0565185546875,-8.35418701171875,79.32281494140625
-0.922119140625,-0.0849609375,-0.1572265625,-39.459228515625,3.2196044921875,76.14898681640625
-0.928955078125,-0.0838623046875,-0.14111328125,-42.44232177734375,13.1378173828125,71.807861328125
-0.9373779296875,-0.0809326171875,-0.1279296875,-43.9453125,16.4031982421875,67.901611328125
-0.937744140625,-0.0771484375,-0.12353515625,-43.8690185546875,15.289306640625,64.8651123046875
-0.933837890625,-0.0753173828125,-0.124755859375,-42.25921630859375,14.46533203125,62.4542236328125
-0.9307861328125,-0.0738525390625,-0.1278076171875,-39.4439697265625,16.448974609375,60.67657470703125
-0.9368896484375,-0.071044921875,-0.1304931640625,-35.858154296875,21.3775634765625,59.22698974609375
-0.9388427734375,-0.06884765625,-0.1317138671875,-32.26470947265625,28.60260009765625,58.11309814453125
-0.9345703125,-0.069580078125,-0.1275634765625,-29.44183349609375,36.47613525390625,56.6558837890625
-0.9361572265625,-0.0699462890625,-0.1214599609375,-27.679443359375,43.2281494140625,54.25262451171875
-0.9423828125,-0.06982421875,-0.11962890625,-26.81732177734375,48.30169677734375,51.1474609375
-0.9501953125,-0.068115234375,-0.1181640625,-26.5655517578125,52.04010009765625,47.32513427734375
-0.9613037109375,-0.0654296875,-0.1192626953125,-26.702880859375,54.92401123046875,43.0450439453125
-0.974853515625,-0.06103515625,-0.121826171875,-27.29034423828125,57.25860595703125,38.82598876953125
-0.9967041015625,-0.054443359375,-0.1243896484375,-28.67889404296875,58.990478515625,35.14862060546875
-1.0274658203125,-0.0482177734375,-0.1326904296875,-30.9906005859375,59.79156494140625,32.73773193359375
-1.044677734375,-0.0439453125,-0.13134765625,-34.4390869140625,60.302734375,31.44073486328125
-1.0677490234375,-0.0438232421875,-0.142578125,-38.26904296875,58.93707275390625,29.67071533203125
-1.0855712890625,-0.04052734375,-0.138671875,-42.6177978515625,59.051513671875,27.7252197265625
-1.11669921875,-0.0374755859375,-0.148681640625,-45.72296142578125,57.4951171875,27.33612060546875
-1.145751953125,-0.034912109375,-0.1536865234375,-48.27117919921875,56.9305419921875,27.44293212890625
-1.218017578125,0.2254638671875,-0.00390625,-55.5419921875,50.11749267578125,27.59552001953125
-1.3099365234375,0.3740234375,-0.0078125,-172.0428466796875,-24.35302734375,21.7437744140625
-1.2060546875,0.1263427734375,-0.0845947265625,-250.0,-81.8328857421875,11.7950439453125
-1.2353515625,-0.1031494140625,0.31298828125,-250.0,-88.20343017578125,9.796142578125
-1.3778076171875,-0.1441650390625,0.729736328125,-250.0,-97.8546142578125,9.3841552734375
-1.420654296875,-0.262451171875,1.1256103515625,-250.0,-144.79827880859375,6.4697265625
-1.205078125,-0.320068359375,0.8790283203125,-250.0,-187.68310546875,5.0506591796875
-0.9727783203125,-0.2894287109375,0.6748046875,-250.0,-139.2974853515625,-15.54107666015625
-0.8616943359375,-0.211181640625,0.566650390625,-250.0,-69.87762451171875,-19.10400390625
-0.9010009765625,-0.201416015625,0.6121826171875,-250.0,-7.171630859375,0.00762939453125
-0.9720458984375,-0.1658935546875,0.4775390625,-122.7569580078125,36.80419921875,33.8897705078125
-1.0272216796875,-0.1861572265625,0.3922119140625,48.14910888671875,66.131591796875,67.93212890625
-1.1064453125,-0.2105712890625,0.2772216796875,210.0830078125,88.409423828125,90.70587158203125
-1.1409912109375,-0.2142333984375,0.167236328125,249.99237060546875,106.7657470703125,104.54559326171875
-1.1441650390625,-0.176025390625,-0.1630859375,249.99237060546875,99.4110107421875,106.903076171875
-1.1651611328125,-0.1380615234375,-0.2542724609375,249.99237060546875,77.3162841796875,90.087890625
-1.166748046875,-0.095458984375,-0.3594970703125,249.99237060546875,59.19647216796875,60.8367919921875
-1.1500244140625,-0.056396484375,-0.435791015625,249.99237060546875,57.50274658203125,23.52142333984375
-1.1309814453125,-0.0284423828125,-0.46044921875,218.2464599609375,67.7490234375,-15.25115966796875
-1.107177734375,-0.0159912109375,-0.4381103515625,108.28399658203125,80.841064453125,-48.86627197265625
-1.0672607421875,-0.0216064453125,-0.3778076171875,0.42724609375,92.14019775390625,-74.249267578125
-1.03125,-0.0379638671875,-0.2943115234375,-91.59088134765625,100.22735595703125,-91.78924560546875
-0.9752197265625,-0.0599365234375,-0.1951904296875,-157.58514404296875,106.48345947265625,-101.76849365234375
-0.9163818359375,-0.0775146484375,-0.1072998046875,-192.9473876953125,109.649658203125,-107.71942138671875
-0.875244140625,-0.081298828125,-0.003662109375,-197.18170166015625,113.25836181640625,-109.35211181640625
-0.8382568359375,-0.07763671875,0.0711669921875,-171.0357666015625,110.6414794921875,-103.24859619140625
-0.8048095703125,-0.0723876953125,0.1126708984375,-122.90191650390625,102.783203125,-93.6279296875
-0.7767333984375,-0.06689453125,0.1202392578125,-63.11798095703125,91.644287109375,-82.37457275390625
-0.7572021484375,-0.0609130859375,0.09423828125,-2.8533935546875,77.40020751953125,-70.61767578125
-0.7401123046875,-0.0528564453125,0.045654296875,47.21832275390625,60.99700927734375,-59.65423583984375
-0.7239990234375,-0.0421142578125,-0.013916015625,79.88739013671875,43.9453125,-50.323486328125
-0.7137451171875,-0.031494140625,-0.0745849609375,91.5985107421875,27.252197265625,-43.3349609375
-0.7078857421875,-0.0233154296875,-0.1265869140625,82.75604248046875,12.02392578125,-38.26141357421875
-0.70947265625,-0.01953125,-0.162841796875,57.28912353515625,-0.78582763671875,-34.67559814453125
-0.7216796875,-0.0179443359375,-0.173828125,21.6522216796875,-10.4827880859375,-32.03582763671875
-0.7420654296875,-0.0208740234375,-0.1607666015625,-15.61737060546875,-18.5546875,-29.18243408203125
-0.765380859375,-0.0284423828125,-0.1322021484375,-46.44775390625,-25.84075927734375,-25.61187744140625
-0.798095703125,-0.0352783203125,-0.0926513671875,-65.2313232421875,-32.64617919921875,-21.24786376953125
-0.8353271484375,-0.0413818359375,-0.0543212890625,-68.94683837890625,-40.557861328125,-15.14434814453125
-0.872802734375,-0.0467529296875,-0.024658203125,-57.74688720703125,-49.98779296875,-7.45391845703125
-0.906494140625,-0.0517578125,-0.0108642578125,-34.7442626953125,-60.882568359375,1.0833740234375
-0.926513671875,-0.0574951171875,-0.016845703125,-5.40924072265625,-72.33428955078125,9.0179443359375
-0.9351806640625,-0.0621337890625,-0.036865234375,24.02496337890625,-83.70208740234375,14.70947265625
-0.9427490234375,-0.0634765625,-0.0703125,48.02703857421875,-94.6807861328125,17.39501953125
-0.9476318359375,-0.0609130859375,-0.108642578125,63.05694580078125,-103.0731201171875,17.3187255859375
-0.9383544921875,-0.05712890625,-0.1439208984375,67.46673583984375,-107.1929931640625,14.58740234375
-0.9337158203125,-0.052490234375,-0.177490234375,61.82098388671875,-106.94122314453125,9.002685546875
-0.924072265625,-0.0499267578125,-0.1910400390625,47.92022705078125,-101.79901123046875,1.861572265625
-0.913818359375,-0.0482177734375,-0.197998046875,30.5633544921875,-92.56744384765625,-6.11114501953125
-0.9251708984375,-0.04638671875,-0.1943359375,12.94708251953125,-79.78057861328125,-14.64080810546875
-0.9478759765625,-0.04296875,-0.1812744140625,-0.98419189453125,-62.81280517578125,-21.29364013671875
-0.975341796875,-0.0411376953125,-0.1632080078125,-8.3770751953125,-43.22052001953125,-26.3671875
-1.0078125,-0.0396728515625,-0.1376953125,-8.1939697265625,-22.10235595703125,-29.11376953125
-1.0294189453125,-0.040771484375,-0.120361328125,-0.030517578125,-2.28118896484375,-29.205322265625
-1.057861328125,-0.0433349609375,-0.1068115234375,14.923095703125,16.39556884765625,-28.778076171875
-1.0845947265625,-0.043701171875,-0.1004638671875,34.30938720703125,34.88922119140625,-28.43475341796875
-1.1258544921875,-0.039306640625,-0.09716796875,55.58013916015625,53.03192138671875,-29.0374755859375
-1.1644287109375,-0.030517578125,-0.100341796875,75.62255859375,67.40570068359375,-29.53338623046875
-1.1688232421875,-0.0225830078125,-0.109619140625,91.1407470703125,76.0955810546875,-29.89959716796875
-1.1591796875,-0.018310546875,-0.1263427734375,99.2431640625,79.36859130859375,-31.88323974609375
-1.175537109375,-0.0106201171875,-0.151611328125,97.991943359375,78.7353515625,-35.04180908203125
-1.23974609375,0.003173828125,-0.1800537109375,87.77618408203125,77.20947265625,-37.4603271484375
-1.3193359375,0.014892578125,-0.201416015625,71.4263916015625,77.9876708984375,-37.353515625
-1.3609619140625,0.0172119140625,-0.196044921875,53.19976806640625,82.672119140625,-34.5916748046875
-1.339111328125,-0.0018310546875,-0.3668212890625,34.6221923828125,83.94622802734375,-32.12738037109375
-1.319580078125,-0.010986328125,-0.276123046875,3.73077392578125,90.1336669921875,-34.5458984375
-1.292724609375,-0.0306396484375,-0.343017578125,-13.031005859375,96.44317626953125,-35.30120849609375
-1.2608642578125,-0.0408935546875,-0.287841796875,-25.01678466796875,99.7467041015625,-35.89630126953125
-1.235595703125,-0.0447998046875,-0.2147216796875,-21.21734619140625,104.79736328125,-36.2548828125
-1.2100830078125,-0.0465087890625,-0.1290283203125,1.373291015625,107.46002197265625,-33.95843505859375
-1.176025390625,-0.0478515625,-0.0628662109375,40.13824462890625,103.24859619140625,-27.77862548828125
-1.1343994140625,-0.0509033203125,-0.037109375,87.60833740234375,93.5821533203125,-19.41680908203125
-1.09130859375,-0.0540771484375,-0.0504150390625,132.8887939453125,80.40618896484375,-11.871337890625
-1.0477294921875,-0.053466796875,-0.0927734375,166.49627685546875,66.9097900390625,-7.91168212890625
-1.001220703125,-0.0491943359375,-0.1417236328125,182.0831298828125,56.02264404296875,-8.4075927734375
-1.0948486328125,0.0228271484375,0.3992919921875,179.54254150390625,45.18890380859375,-12.84027099609375
-1.3251953125,0.112060546875,0.815185546875,237.58697509765625,-31.45599365234375,6.96563720703125
-1.2794189453125,0.0765380859375,0.7586669921875,249.99237060546875,-129.7454833984375,43.67828369140625
-0.90380859375,0.0543212890625,0.4886474609375,249.99237060546875,-157.7911376953125,66.70379638671875
-0.788818359375,0.0904541015625,0.527099609375,249.99237060546875,-106.9488525390625,67.3065185546875
-0.9091796875,0.1060791015625,0.6474609375,249.99237060546875,-58.7005615234375,50.84228515625
-0.91455078125,0.095458984375,0.540283203125,249.99237060546875,-57.86895751953125,45.7611083984375
-0.8841552734375,0.0882568359375,0.36962890625,249.99237060546875,-77.15606689453125,36.62109375
-0.9259033203125,0.0869140625,0.3472900390625,156.25762939453125,-95.81756591796875,21.08001708984375
-0.9525146484375,0.0560302734375,0.3350830078125,30.35736083984375,-112.54119873046875,14.09149169921875
-0.9398193359375,0.01806640625,0.3563232421875,-63.018798828125,-126.51824951171875,16.6778564453125
-0.875,-0.0179443359375,0.3194580078125,-119.2474365234375,-131.38580322265625,21.209716796875
-0.8009033203125,-0.0457763671875,0.2291259765625,-149.96337890625,-125.732421875,19.17266845703125
-0.746337890625,-0.066162109375,0.1470947265625,-167.816162109375,-111.02294921875,10.58197021484375
-0.7437744140625,-0.0758056640625,0.1044921875,-176.62811279296875,-91.92657470703125,0.00762939453125
-0.7554931640625,-0.0767822265625,0.0677490234375,-172.5006103515625,-73.333740234375,-5.9967041015625
-0.7740478515625,-0.0740966796875,-0.0089111328125,-157.04345703125,-55.17578125,-7.5225830078125
-0.8035888671875,-0.072021484375,-0.005859375,-135.9405517578125,-36.7889404296875,-6.05010986328125
-0.83154296875,-0.0682373046875,-0.0008544921875,-103.17230224609375,-20.751953125,-1.220703125
-0.853759765625,-0.064453125,-0.0040283203125,-61.80572509765625,-9.43756103515625,6.30950927734375
-0.8687744140625,-0.0634765625,-0.01953125,-17.87567138671875,-3.692626953125,15.12908935546875
-0.886962890625,-0.0650634765625,-0.0594482421875,22.705078125,-2.93731689453125,23.56719970703125
-0.888671875,-0.0738525390625,-0.08984375,54.443359375,-3.50189208984375,30.31158447265625
-0.86962890625,-0.0849609375,-0.0999755859375,75.56915283203125,-2.41851806640625,33.0352783203125
-0.858642578125,-0.0880126953125,-0.12255859375,87.18109130859375,-1.60980224609375,28.86962890625
-0.883544921875,-0.0809326171875,-0.138671875,88.09661865234375,-0.152587890625,20.233154296875
-0.9132080078125,-0.075927734375,-0.1448974609375,81.27593994140625,0.83160400390625,12.725830078125
-0.923583984375,-0.0753173828125,-0.1417236328125,72.357177734375,4.35638427734375,6.4697265625
-0.914306640625,-0.07763671875,-0.1453857421875,62.530517578125,6.0577392578125,-0.701904296875
-0.8951416015625,-0.0750732421875,-0.1466064453125,49.8199462890625,6.1187744140625,-11.92474365234375
-0.883544921875,-0.0672607421875,-0.147705078125,34.0576171875,4.1656494140625,-25.5889892578125
-0.8812255859375,-0.0565185546875,-0.1385498046875,17.61627197265625,3.3111572265625,-37.19329833984375
-0.8848876953125,-0.0462646484375,-0.1221923828125,3.91387939453125,3.08990478515625,-44.5098876953125
-0.8836669921875,-0.04052734375,-0.110107421875,-4.70733642578125,1.10626220703125,-48.64501953125
-0.873046875,-0.0367431640625,-0.097900390625,-7.3394775390625,0.0152587890625,-50.48370361328125
-0.852783203125,-0.0335693359375,-0.0936279296875,-4.87518310546875,-0.5950927734375,-50.35400390625
-0.8331298828125,-0.0274658203125,-0.095703125,0.37384033203125,-0.22125244140625,-48.60687255859375
-0.8170166015625,-0.0225830078125,-0.1029052734375,5.5389404296875,1.74713134765625,-44.036865234375
-0.8194580078125,-0.018798828125,-0.1182861328125,9.51385498046875,5.66864013671875,-37.5213623046875
-0.8343505859375,-0.0159912109375,-0.13916015625,10.3302001953125,10.76507568359375,-29.3426513671875
-0.8544921875,-0.0146484375,-0.1640625,6.3629150390625,17.6544189453125,-19.99664306640625
-0.8931884765625,-0.0115966796875,-0.185302734375,-3.33404541015625,27.008056640625,-9.84954833984375
-0.9537353515625,-0.013916015625,-0.205078125,-17.38739013671875,39.1998291015625,2.60162353515625
-1.0274658203125,-0.02001953125,-0.214111328125,-34.17205810546875,54.2449951171875,16.17431640625
-1.10205078125,-0.0360107421875,-0.2061767578125,-50.27008056640625,71.64764404296875,30.8380126953125
-2.0,-0.5577392578125,1.99993896484375,-41.0614013671875,43.670654296875,51.1322021484375
-1.9736328125,-0.5498046875,1.99993896484375,108.0474853515625,-155.94482421875,78.25469970703125
-1.7412109375,0.052490234375,1.99993896484375,103.0120849609375,-209.20562744140625,75.21820068359375
-1.3958740234375,0.1085205078125,1.99993896484375,-93.8262939453125,-223.51837158203125,39.57366943359375
-1.1937255859375,0.032470703125,1.7686767578125,-186.2335205078125,-220.8404541015625,16.63970947265625
-1.098876953125,-0.02490234375,1.15869140625,-205.31463623046875,-177.89459228515625,8.32366943359375
-1.0318603515625,-0.061279296875,0.8203125,-198.32611083984375,-103.50799560546875,10.2691650390625
-0.9906005859375,-0.0865478515625,0.6182861328125,-172.6837158203125,-26.092529296875,8.97979736328125
-1.0399169921875,-0.0950927734375,0.470458984375,-134.91058349609375,25.665283203125,4.63104248046875
-1.112548828125,-0.0946044921875,0.3616943359375,-85.174560546875,60.06622314453125,8.18634033203125
-1.1832275390625,-0.0943603515625,0.2366943359375,-29.9530029296875,77.15606689453125,21.43096923828125
-1.190185546875,-0.09619140625,0.0511474609375,20.31707763671875,92.34619140625,39.9017333984375
-1.2142333984375,-0.089599609375,-0.0802001953125,52.46734619140625,106.33087158203125,54.0771484375
-1.22607421875,-0.09375,-0.143310546875,61.54632568359375,118.6065673828125,61.309814453125
-1.206298828125,-0.0963134765625,-0.174560546875,60.18829345703125,131.47735595703125,61.7828369140625
-1.1964111328125,-0.0975341796875,-0.1505126953125,55.4351806640625,141.39556884765625,57.4188232421875
-1.163330078125,-0.09423828125,-0.13330078125,51.4068603515625,141.89910888671875,52.459716796875
-1.12451171875,-0.0926513671875,-0.1260986328125,44.68536376953125,131.988525390625,45.41015625
-1.09375,-0.0797119140625,-0.119873046875,32.623291015625,114.74609375,37.29248046875
-1.080810546875,-0.071044921875,-0.1158447265625,16.25823974609375,91.85791015625,31.2652587890625
-1.06982421875,-0.0633544921875,-0.1190185546875,-3.15093994140625,64.4378662109375,27.25982666015625
-1.04296875,-0.0599365234375,-0.1092529296875,-25.2532958984375,34.53826904296875,25.45166015625
-1.0223388671875,-0.059814453125,-0.0977783203125,-46.42486572265625,1.4801025390625,25.88653564453125
-1.02490234375,-0.0615234375,-0.102294921875,-63.31634521484375,-32.5927734375,27.923583984375
-1.054931640625,-0.062744140625,-0.1112060546875,-75.38604736328125,-61.9354248046875,30.35736083984375
-1.0767822265625,-0.0631103515625,-0.1197509765625,-82.23724365234375,-84.9151611328125,33.355712890625
-1.0699462890625,-0.06640625,-0.1248779296875,-85.0830078125,-102.51617431640625,37.59765625
-1.0386962890625,-0.0718994140625,-0.130859375,-85.44158935546875,-115.478515625,42.88482666015625
-0.9910888671875,-0.0780029296875,-0.13818359375,-85.21270751953125,-124.71771240234375,48.40087890625
-0.92626953125,-0.0802001953125,-0.141357421875,-85.56365966796875,-129.180908203125,52.947998046875
-0.860595703125,-0.08251953125,-0.1351318359375,-86.05194091796875,-128.3416748046875,56.17523193359375
-0.80419921875,-0.084228515625,-0.13134765625,-84.70916748046875,-124.237060546875,58.197021484375
-0.7532958984375,-0.086669921875,-0.1248779296875,-80.95550537109375,-115.59295654296875,60.394287109375
-0.7125244140625,-0.091796875,-0.117919921875,-74.02801513671875,-101.18865966796875,63.96484375
-0.68115234375,-0.0986328125,-0.1180419921875,-63.78173828125,-81.16912841796875,68.0999755859375
-0.665283203125,-0.1055908203125,-0.1217041015625,-52.48260498046875,-55.67169189453125,71.25091552734375
-0.6710205078125,-0.11083984375,-0.1234130859375,-42.0379638671875,-26.52740478515625,72.81494140625
-0.6903076171875,-0.11474609375,-0.1236572265625,-33.47015380859375,3.4942626953125,73.18115234375
-0.7098388671875,-0.117919921875,-0.1163330078125,-27.04620361328125,32.90557861328125,72.44110107421875
-0.727783203125,-0.1170654296875,-0.106689453125,-22.125244140625,59.6923828125,69.63348388671875
-0.7320556640625,-0.114013671875,-0.0946044921875,-19.0277099609375,80.7647705078125,66.40625
-0.7391357421875,-0.1131591796875,-0.076171875,-18.13507080078125,95.31402587890625,63.17901611328125
-0.7633056640625,-0.114501953125,-0.0728759765625,-17.18902587890625,103.01971435546875,58.38775634765625
-0.781494140625,-0.1131591796875,-0.06201171875,-15.777587890625,108.32977294921875,52.154541015625
-0.7996826171875,-0.112548828125,-0.0517578125,-13.46588134765625,109.93194580078125,44.68536376953125
-0.81884765625,-0.1126708984375,-0.0399169921875,-9.13238525390625,109.161376953125,36.72027587890625
-0.84716796875,-0.1151123046875,-0.034423828125,-1.94549560546875,105.87310791015625,28.717041015625
-0.8719482421875,-0.1181640625,-0.032958984375,7.6751708984375,100.27313232421875,21.0418701171875
-0.8878173828125,-0.1199951171875,-0.0316162109375,19.1802978515625,93.1854248046875,13.26751708984375
-0.894287109375,-0.11767578125,-0.0391845703125,31.494140625,84.3048095703125,5.22613525390625
-0.8983154296875,-0.111083984375,-0.0491943359375,42.6177978515625,75.7904052734375,-2.9296875
-0.885009765625,-0.104248046875,-0.0538330078125,52.8717041015625,69.3817138671875,-10.498046875
-0.8603515625,-0.0999755859375,-0.056884765625,63.19427490234375,65.216064453125,-17.425537109375
-0.8416748046875,-0.0970458984375,-0.0673828125,72.99041748046875,62.164306640625,-23.41461181640625
-0.8360595703125,-0.09375,-0.084228515625,80.718994140625,61.37847900390625,-29.3121337890625
-0.8560791015625,-0.093994140625,-0.09619140625,84.6710205078125,62.76702880859375,-35.39276123046875
-0.878662109375,-0.088623046875,-0.1201171875,87.3260498046875,63.1866455078125,-41.015625
-0.9268798828125,-0.0810546875,-0.20458984375,88.6383056640625,71.28143310546875,-41.168212890625
-1.002197265625,-0.0814208984375,-0.2520751953125,75.26397705078125,98.14453125,-43.39599609375
-1.0526123046875,-0.0899658203125,-0.2506103515625,52.5360107421875,136.98577880859375,-42.68646240234375
-1.1461181640625,-0.0955810546875,-0.2294921875,30.3802490234375,177.1087646484375,-46.86737060546875
-1.2275390625,-0.098388671875,-0.187744140625,9.857177734375,198.3184814453125,-52.04010009765625
-1.316162109375,-0.0946044921875,-0.1458740234375,-2.73895263671875,199.40948486328125,-57.9071044921875
-1.3558349609375,-0.0933837890625,-0.1199951171875,-2.7008056640625,190.5059814453125,-62.103271484375
-1.3935546875,-0.0975341796875,-0.0960693359375,10.3607177734375,184.91363525390625,-64.43023681640625
-1.4140625,-0.0550537109375,-0.253662109375,29.78515625,176.88751220703125,-65.7501220703125
-1.445068359375,-0.0631103515625,-0.21484375,31.89849853515625,184.22698974609375,-74.30267333984375
-1.5833740234375,0.0347900390625,-0.3388671875,54.901123046875,249.99237060546875,-84.49554443359375
-1.7723388671875,0.134521484375,-0.2977294921875,67.3980712890625,249.99237060546875,-73.41766357421875
-1.9381103515625,0.364013671875,0.404052734375,88.0584716796875,249.99237060546875,-51.2237548828125
-2.0,0.762939453125,1.2841796875,120.42236328125,249.99237060546875,-18.9208984375
-1.86328125,0.7314453125,1.2071533203125,80.596923828125,175.5218505859375,-0.87738037109375
-1.7235107421875,0.47705078125,0.9000244140625,-7.28607177734375,29.59442138671875,-0.40435791015625
-1.6593017578125,0.290771484375,0.6661376953125,-48.431396484375,-77.53753662109375,-4.24957275390625
-1.5120849609375,0.1385498046875,0.5079345703125,-30.89141845703125,-160.39276123046875,-18.60809326171875
-1.4075927734375,0.0701904296875,0.28173828125,22.13287353515625,-217.88787841796875,-34.32464599609375
-1.4239501953125,0.017822265625,0.0496826171875,60.2569580078125,-241.44744873046875,-43.35784912109375
-1.3916015625,0.0057373046875,-0.09130859375,62.35504150390625,-250.0,-57.24334716796875
-1.336669921875,0.016357421875,-0.2015380859375,43.84613037109375,-250.0,-68.18389892578125
-1.2864990234375,0.020263671875,-0.2569580078125,8.4991455078125,-246.22344970703125,-71.31195068359375
-1.2464599609375,0.0103759765625,-0.2628173828125,-34.0728759765625,-232.452392578125,-69.48089599609375
-1.239501953125,-0.010986328125,-0.2410888671875,-70.648193359375,-218.33038330078125,-65.84930419921875
-1.256591796875,-0.03271484375,-0.1993408203125,-91.80450439453125,-204.52117919921875,-61.767578125
-1.278564453125,-0.0452880859375,-0.1514892578125,-92.32330322265625,-193.8018798828125,-56.29730224609375
-1.2926025390625,-0.0509033203125,-0.1234130859375,-72.42584228515625,-186.767578125,-45.379638671875
-1.2886962890625,-0.0615234375,-0.11865234375,-38.055419921875,-179.8553466796875,-27.38189697265625
-1.262451171875,-0.0762939453125,-0.1396484375,2.96783447265625,-168.84613037109375,-5.584716796875
-1.2139892578125,-0.0885009765625,-0.1651611328125,40.71807861328125,-152.862548828125,15.0299072265625
-1.1590576171875,-0.0966796875,-0.1983642578125,68.26019287109375,-135.1165771484375,31.9671630859375
-1.1087646484375,-0.099853515625,-0.23095703125,80.413818359375,-118.6981201171875,43.20526123046875
-1.05712890625,-0.1025390625,-0.2542724609375,75.88958740234375,-104.583740234375,48.42376708984375
-0.99951171875,-0.10498046875,-0.2598876953125,56.82373046875,-93.92547607421875,48.33984375
-0.93798828125,-0.108642578125,-0.2440185546875,28.70941162109375,-87.66937255859375,44.49462890625
-0.880615234375,-0.115234375,-0.2080078125,-0.89263916015625,-85.26611328125,38.23089599609375
-0.8326416015625,-0.1202392578125,-0.1602783203125,-24.13177490234375,-85.89935302734375,30.17425537109375
-0.794921875,-0.1212158203125,-0.109130859375,-36.2091064453125,-90.24810791015625,22.2625732421875
-0.7662353515625,-0.1170654296875,-0.0787353515625,-34.61456298828125,-97.09930419921875,16.510009765625
-0.7391357421875,-0.11083984375,-0.064697265625,-21.6522216796875,-101.72271728515625,14.01519775390625
-0.71728515625,-0.1060791015625,-0.0660400390625,-2.54058837890625,-102.53143310546875,13.83209228515625
-0.705322265625,-0.1004638671875,-0.0848388671875,16.7236328125,-101.63116455078125,13.93890380859375
-0.70068359375,-0.09326171875,-0.114990234375,30.18951416015625,-99.25079345703125,13.83209228515625
-0.7000732421875,-0.0863037109375,-0.1455078125,34.27886962890625,-95.9625244140625,13.702392578125
-0.7022705078125,-0.0814208984375,-0.1715087890625,28.16009521484375,-92.47589111328125,13.05389404296875
-0.708984375,-0.0777587890625,-0.1883544921875,13.80157470703125,-88.40179443359375,11.75689697265625
-0.7193603515625,-0.075439453125,-0.192138671875,-4.82940673828125,-83.1146240234375,10.2386474609375
-0.722412109375,-0.076416015625,-0.181396484375,-22.75848388671875,-75.9735107421875,9.71221923828125
-0.7266845703125,-0.08154296875,-0.1634521484375,-35.186767578125,-67.14630126953125,10.41412353515625
-0.7261962890625,-0.0889892578125,-0.1441650390625,-39.215087890625,-56.365966796875,12.42828369140625
-0.727783203125,-0.0960693359375,-0.1285400390625,-34.4696044921875,-43.27392578125,15.0146484375
-0.7327880859375,-0.1014404296875,-0.120849609375,-22.796630859375,-28.46527099609375,17.81463623046875
-0.7393798828125,-0.1019287109375,-0.1234130859375,-8.056640625,-12.96234130859375,20.5841064453125
-0.74462890625,-0.098876953125,-0.1329345703125,5.401611328125,2.44903564453125,23.06365966796875
-0.74853515625,-0.0950927734375,-0.144775390625,14.07623291015625,16.57867431640625,24.87945556640625
-0.7489013671875,-0.0914306640625,-0.152099609375,16.25823974609375,28.58734130859375,25.726318359375
-0.7435302734375,-0.0888671875,-0.154296875,12.55035400390625,38.238525390625,25.7720947265625
-0.7359619140625,-0.08837890625,-0.1500244140625,5.1422119140625,45.89080810546875,25.20751953125
-0.736572265625,-0.08837890625,-0.14111328125,-3.10516357421875,52.11639404296875,24.66583251953125
-0.747802734375,-0.0894775390625,-0.131591796875,-9.2926025390625,57.71636962890625,24.80316162109375
