accel_x,accel_y,accel_z,gyro_x,gyro_y,gyro_z
0.1549072265625,-0.4029541015625,-0.9957275390625,1.983642578125,-1.25885009765625,0.78582763671875
0.154541015625,-0.403076171875,-0.996826171875,1.88446044921875,-1.2664794921875,0.7476806640625
0.154541015625,-0.40234375,-0.9969482421875,1.97601318359375,-1.2969970703125,0.762939453125
0.1539306640625,-0.40234375,-0.9964599609375,2.2125244140625,-1.28936767578125,0.83160400390625
0.154052734375,-0.402587890625,-0.99658203125,2.471923828125,-1.28173828125,0.90789794921875
0.1533203125,-0.4024658203125,-0.9954833984375,2.5787353515625,-1.28173828125,0.946044921875
0.153564453125,-0.4024658203125,-0.99462890625,2.47955322265625,-1.2969970703125,0.92315673828125
0.1539306640625,-0.4024658203125,-0.9947509765625,2.26593017578125,-1.2969970703125,0.8697509765625
0.154052734375,-0.403076171875,-0.9957275390625,2.11334228515625,-1.28936767578125,0.80108642578125
0.154296875,-0.4027099609375,-0.99560546875,2.09808349609375,-1.27410888671875,0.80108642578125
0.154296875,-0.4031982421875,-0.995849609375,2.2430419921875,-1.28173828125,0.8544921875
0.15380859375,-0.4041748046875,-0.9949951171875,2.41851806640625,-1.28173828125,0.9002685546875
0.1539306640625,-0.4046630859375,-0.9951171875,2.51007080078125,-1.28173828125,0.9307861328125
0.1544189453125,-0.405029296875,-0.9942626953125,2.47955322265625,-1.312255859375,0.91552734375
0.1541748046875,-0.4051513671875,-0.9945068359375,2.3345947265625,-1.31988525390625,0.87738037109375
0.1539306640625,-0.4044189453125,-0.9949951171875,2.197265625,-1.312255859375,0.823974609375
0.1541748046875,-0.4041748046875,-0.9957275390625,2.1209716796875,-1.2969970703125,0.80108642578125
0.1541748046875,-0.4039306640625,-0.995849609375,2.15911865234375,-1.312255859375,0.823974609375
0.1541748046875,-0.4039306640625,-0.994873046875,2.288818359375,-1.312255859375,0.8697509765625
0.1544189453125,-0.4041748046875,-0.994384765625,2.38800048828125,-1.2664794921875,0.885009765625
0.1546630859375,-0.403564453125,-0.99462890625,2.3193359375,-1.2664794921875,0.86212158203125
0.1551513671875,-0.4033203125,-0.9952392578125,2.166748046875,-1.27410888671875,0.83160400390625
0.1551513671875,-0.4022216796875,-0.9957275390625,2.05230712890625,-1.2969970703125,0.8087158203125
0.1549072265625,-0.402099609375,-0.995849609375,2.08282470703125,-1.27410888671875,0.8087158203125
0.154541015625,-0.403076171875,-0.9964599609375,2.18963623046875,-1.27410888671875,0.84686279296875
0.1541748046875,-0.403564453125,-0.9970703125,2.288818359375,-1.28936767578125,0.8697509765625
0.154296875,-0.4031982421875,-0.9964599609375,2.31170654296875,-1.28936767578125,0.8697509765625
0.1541748046875,-0.402587890625,-0.9964599609375,2.2735595703125,-1.28173828125,0.8697509765625
0.1541748046875,-0.402587890625,-0.9957275390625,2.2430419921875,-1.28173828125,0.84686279296875
0.15478515625,-0.403076171875,-0.9967041015625,2.26593017578125,-1.27410888671875,0.84686279296875
0.1549072265625,-0.4029541015625,-0.9969482421875,2.31170654296875,-1.28936767578125,0.8544921875
0.154296875,-0.4033203125,-0.9970703125,2.3193359375,-1.312255859375,0.8544921875
0.15478515625,-0.4034423828125,-0.9979248046875,2.3345947265625,-1.312255859375,0.8697509765625
0.154296875,-0.40380859375,-0.9981689453125,2.35748291015625,-1.312255859375,0.86212158203125
0.154541015625,-0.4039306640625,-0.9976806640625,2.37274169921875,-1.312255859375,0.86212158203125
0.154296875,-0.4034423828125,-0.9993896484375,2.38037109375,-1.3275146484375,0.87738037109375
0.1541748046875,-0.4034423828125,-0.99853515625,2.52532958984375,-1.24359130859375,0.93841552734375
0.154052734375,-0.4039306640625,-0.9969482421875,2.8228759765625,-1.15203857421875,0.99945068359375
0.1541748046875,-0.4039306640625,-0.99609375,2.98309326171875,-1.2359619140625,1.06048583984375
0.1536865234375,-0.404541015625,-0.9949951171875,2.89154052734375,-1.3275146484375,1.06048583984375
0.15380859375,-0.404541015625,-0.9949951171875,2.6092529296875,-1.2359619140625,0.9613037109375
0.1544189453125,-0.4044189453125,-0.99560546875,2.25067138671875,-1.19781494140625,0.84686279296875
0.1541748046875,-0.404296875,-0.996337890625,1.99127197265625,-1.28173828125,0.79345703125
0.154296875,-0.4033203125,-0.9974365234375,1.97601318359375,-1.27410888671875,0.80108642578125
0.154296875,-0.4033203125,-0.9967041015625,2.15911865234375,-1.220703125,0.8392333984375
0.154052734375,-0.4039306640625,-0.9952392578125,2.37274169921875,-1.251220703125,0.9002685546875
0.1541748046875,-0.404052734375,-0.9952392578125,2.54058837890625,-1.28936767578125,0.96893310546875
0.1546630859375,-0.4044189453125,-0.9940185546875,2.58636474609375,-1.251220703125,0.98419189453125
0.155029296875,-0.4041748046875,-0.9940185546875,2.471923828125,-1.21307373046875,0.9307861328125
0.155029296875,-0.4044189453125,-0.9937744140625,2.25830078125,-1.25885009765625,0.8697509765625
0.154541015625,-0.4039306640625,-0.9945068359375,2.12860107421875,-1.28936767578125,0.83160400390625
0.155029296875,-0.40380859375,-0.9952392578125,2.17437744140625,-1.22833251953125,0.81634521484375
0.1549072265625,-0.403564453125,-0.995849609375,2.34222412109375,-1.24359130859375,0.8697509765625
0.154541015625,-0.4036865234375,-0.99560546875,2.50244140625,-1.30462646484375,0.9002685546875
0.1546630859375,-0.404296875,-0.9945068359375,2.55584716796875,-1.30462646484375,0.92315673828125
0.1541748046875,-0.4046630859375,-0.994873046875,2.4566650390625,-1.2664794921875,0.885009765625
0.154541015625,-0.4044189453125,-0.995361328125,2.25830078125,-1.28173828125,0.83160400390625
0.154296875,-0.4041748046875,-0.9962158203125,2.1209716796875,-1.30462646484375,0.80108642578125
0.1544189453125,-0.4036865234375,-0.9964599609375,2.1514892578125,-1.27410888671875,0.823974609375
0.1546630859375,-0.404296875,-0.9971923828125,2.3040771484375,-1.251220703125,0.885009765625
0.1549072265625,-0.40478515625,-0.9970703125,2.44903564453125,-1.2969970703125,0.9307861328125
0.1539306640625,-0.4049072265625,-0.995849609375,2.46429443359375,-1.2969970703125,0.9307861328125
0.154052734375,-0.404296875,-0.994873046875,2.40325927734375,-1.25885009765625,0.90789794921875
0.1546630859375,-0.4044189453125,-0.9947509765625,2.28118896484375,-1.24359130859375,0.87738037109375
0.1541748046875,-0.404052734375,-0.9949951171875,2.20489501953125,-1.28173828125,0.8544921875
0.1541748046875,-0.4041748046875,-0.995849609375,2.22015380859375,-1.28173828125,0.8087158203125
0.154052734375,-0.4039306640625,-0.995849609375,2.29644775390625,-1.25885009765625,0.92315673828125
0.154296875,-0.4039306640625,-0.9954833984375,2.49481201171875,-1.35040283203125,1.007080078125
0.154052734375,-0.4044189453125,-0.99560546875,2.685546875,-1.2359619140625,1.09100341796875
0.155517578125,-0.404052734375,-0.9937744140625,2.78472900390625,-1.2359619140625,1.19781494140625
0.1484375,-0.4052734375,-0.9962158203125,2.73895263671875,-1.59454345703125,1.25885009765625
0.1556396484375,-0.404541015625,-0.994140625,2.9144287109375,-1.44195556640625,0.31280517578125
0.1568603515625,-0.4044189453125,-0.993896484375,2.86865234375,-1.60980224609375,0.57220458984375
0.1529541015625,-0.404296875,-0.9976806640625,2.83050537109375,-2.1514892578125,1.33514404296875
0.1507568359375,-0.404296875,-0.998779296875,3.2958984375,-1.6937255859375,1.42669677734375
0.1580810546875,-0.40478515625,-0.99462890625,3.92913818359375,-0.9918212890625,0.8087158203125
0.1546630859375,-0.40478515625,-0.9940185546875,3.57818603515625,-1.4190673828125,1.15203857421875
0.1495361328125,-0.404296875,-0.9969482421875,2.9449462890625,-2.0904541015625,1.40380859375
0.155029296875,-0.4039306640625,-0.9951171875,3.02886962890625,-1.8463134765625,0.67901611328125
0.1558837890625,-0.4044189453125,-0.994384765625,3.0517578125,-1.82342529296875,0.80108642578125
0.14990234375,-0.4046630859375,-0.9990234375,3.0059814453125,-2.3345947265625,1.16729736328125
0.15283203125,-0.4053955078125,-0.9954833984375,3.35693359375,-1.373291015625,0.90789794921875
0.1544189453125,-0.406982421875,-0.9927978515625,2.98309326171875,-0.78582763671875,0.9765625
0.15185546875,-0.406494140625,-0.9957275390625,2.0751953125,-1.65557861328125,0.762939453125
0.149658203125,-0.4058837890625,-0.9990234375,1.54876708984375,-1.86920166015625,0.40435791015625
0.1514892578125,-0.406494140625,-0.9952392578125,1.51824951171875,-0.55694580078125,0.34332275390625
0.150634765625,-0.40673828125,-0.9937744140625,1.15966796875,0.00762939453125,0.3204345703125
0.153564453125,-0.4061279296875,-0.9925537109375,0.52642822265625,0.091552734375,-0.1373291015625
0.1561279296875,-0.4051513671875,-0.9942626953125,0.06103515625,-0.19073486328125,-0.48065185546875
0.1552734375,-0.4041748046875,-0.996337890625,-0.25177001953125,0.48828125,0.244140625
0.156005859375,-0.403076171875,-0.99609375,0.23651123046875,0.45013427734375,0.579833984375
0.1572265625,-0.40234375,-0.9954833984375,0.8544921875,0.25177001953125,0.823974609375
0.155517578125,-0.4013671875,-0.99853515625,1.41143798828125,-0.52642822265625,1.0986328125
0.1553955078125,-0.4010009765625,-0.99951171875,2.410888671875,-0.80108642578125,1.2054443359375
0.1549072265625,-0.4013671875,-0.998291015625,3.5400390625,-0.64849853515625,1.42669677734375
0.155517578125,-0.40234375,-0.99658203125,4.486083984375,-0.9613037109375,1.60980224609375
0.154541015625,-0.4044189453125,-0.9942626953125,4.95147705078125,-1.068115234375,1.800537109375
0.1553955078125,-0.407958984375,-0.9862060546875,4.486083984375,-1.60980224609375,1.24359130859375
0.149658203125,-0.4083251953125,-0.989013671875,1.89971923828125,-1.54876708984375,0.75531005859375
0.15576171875,-0.4051513671875,-0.9931640625,-0.48828125,-0.93841552734375,-0.17547607421875
0.1549072265625,-0.400634765625,-1.000732421875,-1.5869140625,-1.129150390625,-0.17547607421875
0.1571044921875,-0.3984375,-1.0050048828125,-0.42724609375,-1.434326171875,-0.0762939453125
0.156005859375,-0.3994140625,-1.0030517578125,1.93023681640625,-1.129150390625,0.640869140625
0.1519775390625,-0.40234375,-0.9981689453125,4.0740966796875,-1.24359130859375,1.30462646484375
0.145263671875,-0.4056396484375,-0.9962158203125,5.13458251953125,-2.1209716796875,1.2969970703125
0.156982421875,-0.4073486328125,-0.98583984375,4.8675537109375,-3.326416015625,-0.42724609375
0.1600341796875,-0.40576171875,-0.99267578125,2.49481201171875,-4.4403076171875,-0.67138671875
0.155029296875,-0.40283203125,-1.0018310546875,1.31988525390625,-2.0751953125,0.55694580078125
0.1580810546875,-0.40283203125,-0.9974365234375,2.34222412109375,1.62506103515625,1.48773193359375
0.164306640625,-0.4029541015625,-0.9959716796875,3.387451171875,1.91497802734375,2.52532958984375
0.164306640625,-0.40673828125,-1.0068359375,4.93621826171875,-0.16021728515625,6.69097900390625
0.1466064453125,-0.4007568359375,-1.01171875,11.0015869140625,-4.64630126953125,6.23321533203125
0.15283203125,-0.4071044921875,-0.998046875,15.44189453125,-2.76947021484375,5.30242919921875
0.1529541015625,-0.4168701171875,-0.978271484375,15.838623046875,0.26702880859375,5.89752197265625
0.15283203125,-0.421875,-0.9688720703125,11.6729736328125,-0.8087158203125,4.5318603515625
0.1427001953125,-0.420166015625,-0.97900390625,5.096435546875,-2.6702880859375,2.81524658203125
0.14599609375,-0.4154052734375,-0.9866943359375,0.3509521484375,-0.6256103515625,0.78582763671875
0.1580810546875,-0.410888671875,-0.990234375,-1.8463134765625,2.00653076171875,-0.2593994140625
0.1673583984375,-0.408447265625,-0.99609375,-2.22015380859375,2.40325927734375,1.10626220703125
0.1728515625,-0.4095458984375,-0.997802734375,-0.25177001953125,3.73077392578125,3.76129150390625
0.1768798828125,-0.415283203125,-0.9896240234375,2.9144287109375,6.7901611328125,5.767822265625
0.1812744140625,-0.41650390625,-0.9774169921875,4.3487548828125,7.46917724609375,6.28662109375
0.162109375,-0.4200439453125,-0.978515625,2.73895263671875,5.4931640625,6.2713623046875
0.1441650390625,-0.4146728515625,-0.983642578125,0.823974609375,2.3040771484375,3.8604736328125
0.140869140625,-0.4083251953125,-0.991943359375,-1.52587890625,-1.21307373046875,0.67901611328125
0.1402587890625,-0.405029296875,-1.0029296875,-3.25775146484375,-2.25067138671875,-0.11444091796875
0.1500244140625,-0.40380859375,-1.001953125,-2.044677734375,-0.11444091796875,-0.6561279296875
0.16015625,-0.404052734375,-0.9971923828125,0.14495849609375,0.37384033203125,-0.55694580078125
0.1595458984375,-0.404541015625,-0.9989013671875,2.0294189453125,-1.42669677734375,0.49591064453125
0.15478515625,-0.4056396484375,-1.0018310546875,4.18853759765625,-2.57110595703125,1.4801025390625
0.1563720703125,-0.40966796875,-0.99462890625,6.53076171875,-1.76239013671875,1.76239013671875
0.1553955078125,-0.414306640625,-0.9862060546875,7.16400146484375,-1.03759765625,1.93023681640625
0.155517578125,-0.416748046875,-0.9830322265625,5.615234375,-1.5106201171875,1.6021728515625
0.1524658203125,-0.4163818359375,-0.9857177734375,2.99835205078125,-2.01416015625,1.15203857421875
0.15478515625,-0.4146728515625,-0.990234375,1.02996826171875,-1.4495849609375,0.4119873046875
0.1778564453125,-0.4127197265625,-0.9908447265625,0.12969970703125,-0.16021728515625,1.39617919921875
0.1727294921875,-0.4185791015625,-1.00830078125,1.4495849609375,-1.18255615234375,5.9967041015625
0.173583984375,-0.41357421875,-1.003662109375,10.833740234375,-2.1820068359375,3.936767578125
0.15185546875,-0.4141845703125,-0.9825439453125,16.21246337890625,0.54931640625,3.07464599609375
0.145751953125,-0.423583984375,-0.9725341796875,11.77978515625,1.83868408203125,1.9989013671875
0.138916015625,-0.4232177734375,-0.9794921875,5.53131103515625,0.28228759765625,1.50299072265625
0.1451416015625,-0.4205322265625,-0.9853515625,1.15203857421875,0.64849853515625,-0.30517578125
0.1551513671875,-0.4168701171875,-0.986572265625,-1.495361328125,1.83868408203125,-1.15966796875
0.1605224609375,-0.4134521484375,-0.9906005859375,-2.69317626953125,1.8310546875,-0.5645751953125
0.156494140625,-0.4122314453125,-0.994140625,-2.73895263671875,2.43377685546875,1.0528564453125
0.1591796875,-0.41162109375,-0.9918212890625,-2.08282470703125,3.4942626953125,1.4190673828125
0.16357421875,-0.409912109375,-0.9913330078125,-1.77001953125,2.1820068359375,0.74005126953125
0.16357421875,-0.4078369140625,-0.99658203125,-1.21307373046875,-0.57220458984375,0.41961669921875
0.1611328125,-0.4066162109375,-0.9989013671875,0.46539306640625,-1.85394287109375,0.6561279296875
0.161865234375,-0.408203125,-0.9951171875,2.7008056640625,-1.13677978515625,0.8697509765625
0.1627197265625,-0.4124755859375,-0.9876708984375,3.70025634765625,-0.03814697265625,1.15966796875
0.16015625,-0.4136962890625,-0.9866943359375,2.8839111328125,-0.640869140625,1.13677978515625
0.1610107421875,-0.4134521484375,-0.9906005859375,1.800537109375,-1.50299072265625,0.640869140625
0.162841796875,-0.412109375,-0.9932861328125,1.800537109375,-2.2125244140625,0.30517578125
0.1611328125,-0.4129638671875,-0.9952392578125,2.9144287109375,-2.11334228515625,0.762939453125
0.1607666015625,-0.4150390625,-0.9912109375,4.43267822265625,-1.678466796875,1.1444091796875
0.16064453125,-0.4176025390625,-0.9859619140625,5.13458251953125,-1.6021728515625,1.36566162109375
0.1654052734375,-0.4189453125,-0.982666015625,4.50897216796875,-1.86920166015625,1.40380859375
0.171142578125,-0.430908203125,-0.98046875,2.6702880859375,-0.4425048828125,4.44793701171875
0.16650390625,-0.42041015625,-0.983642578125,3.4637451171875,-3.83758544921875,1.73187255859375
0.1602783203125,-0.4141845703125,-0.9927978515625,3.35693359375,-4.67681884765625,-0.8544921875
0.156005859375,-0.4183349609375,-0.9964599609375,3.15093994140625,0.18310546875,2.044677734375
0.154296875,-0.418701171875,-0.981201171875,4.14276123046875,5.462646484375,1.42669677734375
0.1595458984375,-0.4178466796875,-0.9776611328125,1.86920166015625,4.1351318359375,0.4730224609375
0.1566162109375,-0.4144287109375,-0.9876708984375,-0.6561279296875,0.396728515625,-0.4425048828125
0.157958984375,-0.4102783203125,-0.9931640625,-1.2664794921875,-0.8392333984375,-1.30462646484375
0.162109375,-0.4090576171875,-0.9937744140625,-0.396728515625,-0.244140625,-1.129150390625
0.1622314453125,-0.40966796875,-0.9921875,0.6103515625,0.67138671875,-0.2288818359375
0.1656494140625,-0.4100341796875,-0.98681640625,1.01470947265625,0.26702880859375,-0.2899169921875
0.1639404296875,-0.4090576171875,-0.9901123046875,0.60272216796875,-1.70135498046875,-0.54168701171875
0.1629638671875,-0.4080810546875,-0.995849609375,0.54168701171875,-2.63214111328125,-0.55694580078125
0.163818359375,-0.40771484375,-0.995361328125,1.35040283203125,-1.7852783203125,-0.19073486328125
0.1646728515625,-0.408935546875,-0.9913330078125,2.349853515625,-1.0986328125,0.12969970703125
0.1650390625,-0.409912109375,-0.9910888671875,2.76947021484375,-1.3885498046875,0.48065185546875
0.1632080078125,-0.4110107421875,-0.99267578125,2.9449462890625,-1.94549560546875,0.80108642578125
0.160888671875,-0.4124755859375,-0.9931640625,3.35693359375,-1.91497802734375,0.9002685546875
0.1619873046875,-0.414794921875,-0.9896240234375,3.7384033203125,-1.373291015625,0.885009765625
0.1630859375,-0.41650390625,-0.988525390625,3.70025634765625,-1.8157958984375,0.762939453125
0.16259765625,-0.416748046875,-0.9901123046875,3.47137451171875,-2.655029296875,0.7781982421875
0.18603515625,-0.417236328125,-0.9871826171875,3.4027099609375,-1.85394287109375,2.0751953125
0.1708984375,-0.428955078125,-0.989013671875,5.01251220703125,-0.2288818359375,5.07354736328125
0.1549072265625,-0.4217529296875,-0.9755859375,8.52203369140625,-0.3509521484375,-0.7171630859375
0.1568603515625,-0.42236328125,-0.9737548828125,4.84466552734375,-1.86920166015625,-1.0528564453125
0.1563720703125,-0.4215087890625,-0.9832763671875,0.87738037109375,-2.61688232421875,-0.51116943359375
0.15478515625,-0.4169921875,-0.989990234375,-0.29754638671875,-1.06048583984375,-0.63323974609375
0.1585693359375,-0.41357421875,-0.98974609375,-0.16021728515625,0.38909912109375,-1.13677978515625
0.1602783203125,-0.4127197265625,-0.9876708984375,-0.335693359375,0.51116943359375,-1.0833740234375
0.1610107421875,-0.4107666015625,-0.9910888671875,-0.640869140625,-0.1983642578125,-0.67138671875
0.1666259765625,-0.4080810546875,-0.991943359375,-0.3662109375,-0.31280517578125,-0.8087158203125
0.166259765625,-0.4078369140625,-0.9898681640625,0.0457763671875,-0.31280517578125,-0.6866455078125
0.164306640625,-0.406494140625,-0.992919921875,0.5340576171875,-1.28936767578125,-0.6103515625
0.1658935546875,-0.4068603515625,-0.994140625,1.190185546875,-1.33514404296875,-0.23651123046875
0.1671142578125,-0.4072265625,-0.9931640625,1.953125,-1.24359130859375,0.05340576171875
0.1671142578125,-0.408447265625,-0.9921875,2.593994140625,-1.312255859375,0.3509521484375
0.167236328125,-0.4100341796875,-0.990234375,2.83050537109375,-1.41143798828125,0.52642822265625
0.1663818359375,-0.4107666015625,-0.991455078125,2.83050537109375,-1.6632080078125,0.63323974609375
0.165283203125,-0.412353515625,-0.9920654296875,2.98309326171875,-1.76239013671875,0.66375732421875
0.1650390625,-0.413818359375,-0.9906005859375,3.31878662109375,-1.7852783203125,0.70953369140625
0.165771484375,-0.4151611328125,-0.9898681640625,3.70025634765625,-2.0904541015625,0.9002685546875
0.167724609375,-0.416015625,-0.9881591796875,3.7078857421875,-1.77001953125,1.97601318359375
0.160888671875,-0.416748046875,-0.99169921875,3.7994384765625,-2.1820068359375,2.75421142578125
0.1611328125,-0.418701171875,-0.98779296875,4.5623779296875,-1.434326171875,2.3956298828125
0.1644287109375,-0.420166015625,-0.9854736328125,4.82177734375,-1.04522705078125,2.18963623046875
0.1630859375,-0.4197998046875,-0.98486328125,4.18853759765625,-1.1138916015625,2.44903564453125
0.1591796875,-0.4212646484375,-0.9822998046875,3.4637451171875,-1.24359130859375,2.17437744140625
0.1614990234375,-0.4202880859375,-0.981689453125,1.922607421875,-1.35040283203125,1.21307373046875
0.1593017578125,-0.4178466796875,-0.984619140625,-0.12969970703125,-0.83160400390625,0.61798095703125
0.1644287109375,-0.4144287109375,-0.98583984375,-1.495361328125,-0.29754638671875,-0.29754638671875
0.1636962890625,-0.410400390625,-0.9920654296875,-2.05230712890625,-0.55694580078125,-0.5645751953125
0.1663818359375,-0.4073486328125,-0.99462890625,-1.0223388671875,-0.67901611328125,-0.72479248046875
0.1690673828125,-0.405029296875,-0.99658203125,1.01470947265625,-0.91552734375,-0.43487548828125
0.168212890625,-0.4053955078125,-0.994873046875,3.173828125,-1.4190673828125,0.31280517578125
0.166015625,-0.4078369140625,-0.9912109375,4.7760009765625,-1.64031982421875,0.9002685546875
0.1649169921875,-0.41064453125,-0.98828125,4.99725341796875,-1.44195556640625,1.09100341796875
0.1651611328125,-0.4122314453125,-0.984375,3.83758544921875,-1.2054443359375,0.86212158203125
0.1640625,-0.41162109375,-0.9871826171875,1.99127197265625,-1.3580322265625,0.49591064453125
0.1640625,-0.411376953125,-0.99169921875,0.66375732421875,-1.24359130859375,0.17547607421875
0.1661376953125,-0.4102783203125,-0.9931640625,0.49591064453125,-0.96893310546875,0.11444091796875
0.1666259765625,-0.4105224609375,-0.994873046875,1.44195556640625,-1.2054443359375,0.3662109375
0.1673583984375,-0.41162109375,-0.994384765625,3.0517578125,-1.88446044921875,0.89263916015625
0.165283203125,-0.4144287109375,-0.9940185546875,4.35638427734375,-2.20489501953125,1.8463134765625
0.1630859375,-0.4188232421875,-0.9873046875,4.9896240234375,-1.54876708984375,2.44140625
0.1612548828125,-0.4205322265625,-0.984619140625,4.5013427734375,-1.678466796875,1.96075439453125
0.1602783203125,-0.421875,-0.981689453125,2.960205078125,-1.3885498046875,1.39617919921875
0.162353515625,-0.421142578125,-0.9822998046875,0.7171630859375,-1.6937255859375,0.63323974609375
0.1610107421875,-0.4183349609375,-0.9881591796875,-1.30462646484375,-1.9683837890625,0.030517578125
0.162109375,-0.414794921875,-0.9913330078125,-1.86920166015625,-1.24359130859375,-0.48828125
0.161865234375,-0.4141845703125,-0.990966796875,-1.3885498046875,-0.91552734375,-1.0833740234375
0.1634521484375,-0.4119873046875,-0.9901123046875,-0.84686279296875,-1.2969970703125,-1.64794921875
0.166259765625,-0.40966796875,-0.99267578125,-0.274658203125,-3.10516357421875,-2.471923828125
0.164306640625,-0.4063720703125,-0.99755859375,0.25177001953125,-3.34930419921875,-1.74713134765625
0.16552734375,-0.4052734375,-0.99755859375,1.48773193359375,-1.93023681640625,-0.8087158203125
0.1695556640625,-0.4056396484375,-0.9912109375,2.75421142578125,-0.67901611328125,-0.25177001953125
0.16845703125,-0.406005859375,-0.99072265625,3.15093994140625,-1.36566162109375,0.457763671875
0.1644287109375,-0.406494140625,-0.9927978515625,3.25775146484375,-1.79290771484375,1.10626220703125
0.1641845703125,-0.4078369140625,-0.9912109375,3.57818603515625,-1.2969970703125,1.06048583984375
0.1650390625,-0.4090576171875,-0.988037109375,3.4027099609375,-0.74005126953125,0.946044921875
0.1651611328125,-0.409423828125,-0.988525390625,2.44903564453125,-1.0528564453125,0.9307861328125
0.1640625,-0.409912109375,-0.9901123046875,1.4801025390625,-1.4801025390625,0.72479248046875
0.163330078125,-0.41015625,-0.9906005859375,0.90789794921875,-1.36566162109375,0.46539306640625
0.163818359375,-0.410888671875,-0.9918212890625,0.8544921875,-1.0986328125,0.4119873046875
0.1654052734375,-0.40966796875,-0.9947509765625,1.3427734375,-0.9918212890625,0.74005126953125
0.16259765625,-0.411376953125,-0.9945068359375,2.54058837890625,-0.75531005859375,1.5716552734375
0.1634521484375,-0.41455078125,-0.989013671875,3.7994384765625,-0.9307861328125,1.64794921875
0.1629638671875,-0.416748046875,-0.984375,3.7078857421875,-1.220703125,1.40380859375
0.1636962890625,-0.4166259765625,-0.983642578125,2.49481201171875,-1.190185546875,0.96893310546875
0.1611328125,-0.4173583984375,-0.9859619140625,1.09100341796875,-1.068115234375,0.30517578125
0.1611328125,-0.4144287109375,-0.9853515625,-0.1983642578125,-0.9002685546875,-0.4425048828125
0.166015625,-0.4122314453125,-0.9884033203125,-1.33514404296875,-0.03814697265625,-0.49591064453125
0.1678466796875,-0.407958984375,-0.9930419921875,-1.38092041015625,-0.6866455078125,-0.49591064453125
0.1641845703125,-0.405517578125,-0.9979248046875,-0.08392333984375,-1.35040283203125,0.05340576171875
0.1683349609375,-0.4052734375,-0.992431640625,2.1820068359375,-1.02996826171875,0.48828125
0.1671142578125,-0.4068603515625,-0.9903564453125,3.4942626953125,-0.96893310546875,1.10626220703125
0.1644287109375,-0.408447265625,-0.987060546875,3.63922119140625,-1.15966796875,1.28936767578125
0.1646728515625,-0.4066162109375,-0.9888916015625,2.6702880859375,-1.495361328125,0.92315673828125
0.16650390625,-0.4061279296875,-0.9912109375,1.708984375,-0.9918212890625,0.63323974609375
0.16748046875,-0.4052734375,-0.9927978515625,1.5106201171875,-1.03759765625,0.55694580078125
0.1668701171875,-0.405517578125,-0.9959716796875,2.044677734375,-1.27410888671875,0.8087158203125
0.1656494140625,-0.40673828125,-0.9964599609375,2.99072265625,-1.28936767578125,1.0986328125
0.1678466796875,-0.4073486328125,-0.99365234375,3.96728515625,-1.16729736328125,1.24359130859375
0.1656494140625,-0.40966796875,-0.9921875,4.26483154296875,-1.39617919921875,1.45721435546875
0.16552734375,-0.412109375,-0.989013671875,3.936767578125,-1.30462646484375,1.35040283203125
0.1649169921875,-0.41357421875,-0.988525390625,3.082275390625,-1.0986328125,1.02996826171875
0.165771484375,-0.41259765625,-0.9891357421875,1.922607421875,-1.22833251953125,0.72479248046875
0.169189453125,-0.4112548828125,-0.9881591796875,0.98419189453125,-0.6256103515625,1.18255615234375
0.165283203125,-0.4095458984375,-0.993408203125,1.0833740234375,-1.434326171875,1.3580322265625
0.16796875,-0.408935546875,-0.991455078125,2.1820068359375,-1.2054443359375,1.2664794921875
0.164794921875,-0.409423828125,-0.992919921875,3.30352783203125,-1.85394287109375,1.59454345703125
0.1619873046875,-0.4111328125,-0.9908447265625,4.3182373046875,-2.1514892578125,1.4801025390625
0.1671142578125,-0.411865234375,-0.9879150390625,4.84466552734375,-2.70843505859375,0.77056884765625
0.164306640625,-0.4124755859375,-0.9871826171875,4.37164306640625,-3.42559814453125,0.8392333984375
0.16015625,-0.4127197265625,-0.98828125,3.5400390625,-3.0364990234375,0.96893310546875
0.1617431640625,-0.4119873046875,-0.987060546875,2.74658203125,-1.708984375,0.640869140625
0.1649169921875,-0.41162109375,-0.987548828125,1.77001953125,-0.9613037109375,0.34332275390625
0.1627197265625,-0.4100341796875,-0.99169921875,0.77056884765625,-1.09100341796875,0.45013427734375
0.1668701171875,-0.40771484375,-0.994140625,0.74005126953125,-1.312255859375,0.35858154296875
0.1619873046875,-0.4073486328125,-0.9974365234375,1.59454345703125,-1.45721435546875,0.86212158203125
0.16552734375,-0.4080810546875,-0.9931640625,2.72369384765625,-0.78582763671875,1.190185546875
0.1639404296875,-0.409423828125,-0.990966796875,3.59344482421875,-1.4190673828125,1.2054443359375
0.16259765625,-0.4117431640625,-0.9879150390625,3.88336181640625,-1.33514404296875,1.47247314453125
0.1632080078125,-0.4119873046875,-0.98779296875,3.570556640625,-1.68609619140625,1.4190673828125
0.1617431640625,-0.412841796875,-0.9876708984375,2.98309326171875,-1.5411376953125,1.2054443359375
0.1622314453125,-0.4136962890625,-0.9871826171875,2.14385986328125,-1.21307373046875,1.068115234375
0.164794921875,-0.41259765625,-0.989501953125,1.50299072265625,-1.31988525390625,0.6561279296875
0.1646728515625,-0.41162109375,-0.9918212890625,1.4495849609375,-1.30462646484375,0.64849853515625
0.162109375,-0.4111328125,-0.994384765625,1.94549560546875,-1.495361328125,0.823974609375
0.16552734375,-0.41064453125,-0.9915771484375,2.5634765625,-1.19781494140625,1.0986328125
0.16552734375,-0.4110107421875,-0.9912109375,3.08990478515625,-1.64794921875,1.2664794921875
0.1622314453125,-0.41162109375,-0.99072265625,3.3111572265625,-1.54876708984375,1.28936767578125
0.1636962890625,-0.4117431640625,-0.98974609375,3.10516357421875,-1.25885009765625,1.0223388671875
0.164794921875,-0.411376953125,-0.989013671875,2.43377685546875,-1.28936767578125,0.84686279296875
0.16552734375,-0.4105224609375,-0.9908447265625,1.7242431640625,-1.4190673828125,0.77056884765625
0.16455078125,-0.4097900390625,-0.9930419921875,1.57928466796875,-1.52587890625,0.701904296875
0.1649169921875,-0.409423828125,-0.991943359375,2.044677734375,-1.25885009765625,0.72479248046875
0.165283203125,-0.4105224609375,-0.99072265625,2.655029296875,-1.2054443359375,0.92315673828125
0.1641845703125,-0.4111328125,-0.989501953125,3.04412841796875,-1.44195556640625,1.09100341796875
0.16259765625,-0.412109375,-0.988525390625,3.07464599609375,-1.38092041015625,1.1138916015625
0.162353515625,-0.413818359375,-0.9873046875,2.7008056640625,-1.18255615234375,0.9765625
0.162353515625,-0.41455078125,-0.987060546875,2.06756591796875,-1.22833251953125,0.84686279296875
0.161865234375,-0.4139404296875,-0.988525390625,1.617431640625,-1.38092041015625,0.77056884765625
0.1622314453125,-0.4134521484375,-0.990234375,1.70135498046875,-1.28936767578125,0.75531005859375
0.163330078125,-0.4139404296875,-0.9901123046875,2.18963623046875,-1.15966796875,0.83160400390625
0.1630859375,-0.41455078125,-0.988525390625,2.66265869140625,-1.27410888671875,0.95367431640625
0.16259765625,-0.414306640625,-0.98876953125,2.8533935546875,-1.36566162109375,1.01470947265625
0.1632080078125,-0.41357421875,-0.9876708984375,2.685546875,-1.25885009765625,0.946044921875
0.16357421875,-0.4134521484375,-0.987548828125,2.197265625,-1.19781494140625,0.79345703125
0.1639404296875,-0.4119873046875,-0.98974609375,1.6326904296875,-1.28173828125,0.67901611328125
0.1639404296875,-0.410400390625,-0.991455078125,1.39617919921875,-1.33514404296875,0.640869140625
0.1651611328125,-0.40966796875,-0.9921875,1.6021728515625,-1.24359130859375,0.6866455078125
0.1654052734375,-0.4095458984375,-0.9921875,2.044677734375,-1.2054443359375,0.80108642578125
0.16552734375,-0.4097900390625,-0.990966796875,2.4261474609375,-1.2969970703125,0.93841552734375
0.165283203125,-0.409423828125,-0.9918212890625,2.6092529296875,-1.35040283203125,0.9918212890625
0.1649169921875,-0.409912109375,-0.9912109375,2.5482177734375,-1.2969970703125,0.9613037109375
0.1650390625,-0.4100341796875,-0.990966796875,2.32696533203125,-1.28173828125,0.87738037109375
0.164794921875,-0.4105224609375,-0.9912109375,2.1209716796875,-1.3275146484375,0.83160400390625
0.1646728515625,-0.410400390625,-0.9908447265625,2.09808349609375,-1.28173828125,0.81634521484375
0.1640625,-0.4107666015625,-0.990966796875,2.25067138671875,-1.220703125,0.86212158203125
0.163818359375,-0.411376953125,-0.990478515625,2.49481201171875,-1.2664794921875,0.946044921875
0.162841796875,-0.4122314453125,-0.9910888671875,2.72369384765625,-1.30462646484375,1.0223388671875
0.162841796875,-0.4130859375,-0.989501953125,2.8076171875,-1.28173828125,1.04522705078125
0.162353515625,-0.4139404296875,-0.989501953125,2.69317626953125,-1.251220703125,0.99945068359375
0.161865234375,-0.41455078125,-0.9891357421875,2.41851806640625,-1.2664794921875,0.92315673828125
0.162109375,-0.4150390625,-0.9884033203125,2.1209716796875,-1.28936767578125,0.823974609375
0.1629638671875,-0.413818359375,-0.9898681640625,1.953125,-1.24359130859375,0.7476806640625
0.1634521484375,-0.41357421875,-0.9906005859375,1.9378662109375,-1.2359619140625,0.7476806640625
0.11767578125,-0.438232421875,-0.99658203125,1.64794921875,1.50299072265625,1.739501953125
0.070556640625,-0.4942626953125,-1.0091552734375,1.73187255859375,14.862060546875,6.62994384765625
0.0535888671875,-0.53173828125,-0.9921875,13.9923095703125,21.881103515625,14.42718505859375
0.08447265625,-0.5462646484375,-0.947998046875,29.42657470703125,28.78570556640625,19.7906494140625
0.2589111328125,-0.40673828125,-0.908935546875,39.85595703125,10.58197021484375,-6.72149658203125
0.21875,-0.3785400390625,-0.9921875,26.71051025390625,-11.505126953125,-26.13067626953125
0.248291015625,-0.427978515625,-1.0467529296875,29.18243408203125,-18.6004638671875,-33.14208984375
0.269775390625,-0.4891357421875,-1.0264892578125,63.91143798828125,-19.55413818359375,-32.99713134765625
0.3096923828125,-0.5716552734375,-0.939453125,111.14501953125,-28.70941162109375,-27.679443359375
0.3580322265625,-0.730712890625,-0.9146728515625,159.96551513671875,-67.97027587890625,-12.58087158203125
0.335205078125,-0.8656005859375,-0.882568359375,249.99237060546875,-141.56341552734375,13.8702392578125
0.178955078125,-1.0301513671875,-0.9427490234375,249.99237060546875,-236.99951171875,57.22808837890625
-0.06689453125,-1.2681884765625,-1.067626953125,249.99237060546875,-250.0,107.35321044921875
-0.266845703125,-1.5068359375,-1.1737060546875,249.99237060546875,-250.0,145.172119140625
-0.42138671875,-1.728271484375,-1.2489013671875,249.99237060546875,-250.0,164.13116455078125
-0.4715576171875,-1.8702392578125,-1.223876953125,249.99237060546875,-249.6795654296875,159.91973876953125
-0.535888671875,-1.905517578125,-1.0888671875,249.99237060546875,-190.51361083984375,133.056640625
-0.5552978515625,-1.8316650390625,-0.8974609375,249.99237060546875,-137.09259033203125,79.6966552734375
-0.528564453125,-1.6956787109375,-0.714599609375,249.99237060546875,-94.8944091796875,7.19451904296875
-0.5445556640625,-1.4677734375,-0.5909423828125,249.99237060546875,-69.34356689453125,-72.09014892578125
-0.5068359375,-1.145263671875,-0.55859375,205.474853515625,-59.6160888671875,-153.00750732421875
-0.450439453125,-0.625244140625,-0.522216796875,148.15521240234375,-47.00469970703125,-235.626220703125
-0.398681640625,0.1153564453125,-0.38134765625,105.8197021484375,-21.2554931640625,-250.0
-0.3116455078125,0.9854736328125,-0.1373291015625,72.25799560546875,8.73565673828125,-250.0
-0.204345703125,1.7401123046875,0.084716796875,33.6456298828125,19.73724365234375,-250.0
-0.1015625,1.99993896484375,0.1513671875,0.03814697265625,-0.58746337890625,-250.0
-0.0523681640625,1.99993896484375,0.052001953125,-23.99444580078125,-37.92572021484375,-197.845458984375
-0.0576171875,1.9708251953125,-0.192138671875,-40.191650390625,-80.14678955078125,-66.58935546875
-0.1708984375,1.2777099609375,-0.498046875,-49.18670654296875,-111.63330078125,72.6318359375
-0.3046875,0.3924560546875,-0.7738037109375,-58.013916015625,-121.08612060546875,198.89068603515625
-0.45751953125,-0.599853515625,-0.951904296875,-61.80572509765625,-110.198974609375,249.99237060546875
-0.68359375,-1.632080078125,-1.0093994140625,-36.56005859375,-88.52386474609375,249.99237060546875
-0.994140625,-2.0,-0.9886474609375,-0.84686279296875,-59.0667724609375,249.99237060546875
-1.22021484375,-2.0,-0.888671875,15.06805419921875,-18.51654052734375,249.99237060546875
-1.3134765625,-2.0,-0.6705322265625,31.70013427734375,19.6380615234375,249.99237060546875
-1.271728515625,-2.0,-0.446533203125,40.15350341796875,37.36114501953125,95.947265625
-1.1278076171875,-2.0,-0.3365478515625,45.18890380859375,31.05926513671875,-36.10992431640625
-0.9296875,-2.0,-0.3350830078125,50.0030517578125,17.4560546875,-112.83111572265625
-0.7396240234375,-1.9158935546875,-0.4306640625,52.94036865234375,4.85992431640625,-144.4091796875
-0.56884765625,-1.6749267578125,-0.5452880859375,57.38067626953125,1.6937255859375,-159.37042236328125
-0.4244384765625,-1.4462890625,-0.5709228515625,57.891845703125,13.5040283203125,-180.0079345703125
-0.325927734375,-1.15380859375,-0.48681640625,55.17578125,31.5704345703125,-208.9691162109375
-0.370849609375,-0.6812744140625,-0.3753662109375,53.16162109375,41.3665771484375,-246.64306640625
-0.335693359375,0.078857421875,-0.286376953125,47.3480224609375,46.0662841796875,-250.0
-0.2664794921875,1.08935546875,-0.1221923828125,34.62982177734375,62.255859375,-250.0
-0.1650390625,1.99993896484375,0.133056640625,15.106201171875,77.20184326171875,-250.0
-0.093994140625,1.99993896484375,0.3629150390625,-1.495361328125,68.62640380859375,-250.0
-0.162109375,1.99993896484375,0.4259033203125,-10.49041748046875,26.1383056640625,-144.11163330078125
-0.373779296875,1.99993896484375,0.2437744140625,-19.3328857421875,-41.6107177734375,37.3382568359375
-0.6435546875,1.6607666015625,-0.0596923828125,-37.07122802734375,-100.85296630859375,215.58380126953125
-1.0142822265625,0.294677734375,-0.404052734375,-66.6351318359375,-137.908935546875,249.99237060546875
-1.463623046875,-1.2998046875,-0.779052734375,-78.43017578125,-161.5753173828125,249.99237060546875
-1.93359375,-2.0,-1.0802001953125,-43.1365966796875,-163.02490234375,249.99237060546875
-2.0,-2.0,-1.282470703125,-34.24072265625,-123.9166259765625,249.99237060546875
-2.0,-2.0,-1.2501220703125,-21.0113525390625,-55.0994873046875,249.99237060546875
-2.0,-2.0,-0.916748046875,24.322509765625,21.01898193359375,202.3162841796875
-2.0,-2.0,-0.4993896484375,68.13812255859375,65.7501220703125,-20.99609375
-1.727294921875,-2.0,-0.2047119140625,94.940185546875,65.71197509765625,-176.4373779296875
-1.3197021484375,-1.6484375,-0.099609375,106.0943603515625,39.73388671875,-250.0
-0.9571533203125,-1.0379638671875,-0.1845703125,112.396240234375,4.1961669921875,-250.0
-0.6865234375,-0.83544921875,-0.3297119140625,107.818603515625,-16.41845703125,-216.51458740234375
-0.4808349609375,-0.64794921875,-0.3262939453125,89.2486572265625,-6.27899169921875,-207.82470703125
-0.3262939453125,-0.202392578125,-0.1680908203125,70.49560546875,12.30621337890625,-232.35321044921875
-0.1707763671875,0.4510498046875,-0.0113525390625,47.637939453125,18.0206298828125,-250.0
-0.0174560546875,1.2659912109375,0.0841064453125,29.96826171875,11.4593505859375,-250.0
0.1138916015625,1.99993896484375,0.086181640625,15.87677001953125,-6.91986083984375,-250.0
0.2120361328125,1.99993896484375,0.0101318359375,-0.3204345703125,-32.53936767578125,-250.0
0.1575927734375,1.99993896484375,-0.15625,-18.42498779296875,-62.47711181640625,-143.51654052734375
-0.105224609375,1.99993896484375,-0.388671875,-20.11871337890625,-92.75054931640625,50.29296875
-0.5047607421875,1.2110595703125,-0.5792236328125,-26.17645263671875,-103.96575927734375,249.99237060546875
-0.9732666015625,-0.3779296875,-0.7235107421875,-37.26959228515625,-100.73089599609375,249.99237060546875
-1.43212890625,-2.0,-0.843017578125,-38.59710693359375,-90.1641845703125,249.99237060546875
-1.76171875,-2.0,-0.892578125,-37.9638671875,-63.568115234375,249.99237060546875
-1.9688720703125,-2.0,-0.783447265625,-31.33392333984375,-22.40753173828125,249.99237060546875
-1.952392578125,-2.0,-0.552734375,-18.890380859375,16.0980224609375,200.0274658203125
-1.7662353515625,-2.0,-0.3612060546875,11.9171142578125,27.1148681640625,46.02813720703125
-1.4920654296875,-2.0,-0.326416015625,39.7491455078125,11.016845703125,-69.0460205078125
-1.22021484375,-2.0,-0.413330078125,55.41229248046875,-9.16290283203125,-141.326904296875
-0.9398193359375,-1.8787841796875,-0.544189453125,66.88690185546875,-19.34814453125,-179.6112060546875
-0.6929931640625,-1.321044921875,-0.6053466796875,71.990966796875,-11.932373046875,-199.86724853515625
-0.45458984375,-0.7554931640625,-0.566162109375,69.19097900390625,6.75201416015625,-219.24591064453125
-0.2431640625,-0.1015625,-0.453125,61.05804443359375,23.96392822265625,-244.5526123046875
-0.07568359375,0.67431640625,-0.334716796875,46.97418212890625,31.79931640625,-250.0
0.0782470703125,1.529541015625,-0.24560546875,35.08758544921875,31.79931640625,-250.0
0.188232421875,1.99993896484375,-0.1590576171875,25.6500244140625,28.8848876953125,-250.0
0.2099609375,1.99993896484375,-0.05322265625,7.11822509765625,23.47564697265625,-195.91522216796875
0.07568359375,1.99993896484375,0.012451171875,-10.81085205078125,5.0506591796875,-65.57464599609375
-0.2034912109375,1.99993896484375,-0.007568359375,-23.4832763671875,-26.83258056640625,96.96197509765625
-0.609130859375,1.1429443359375,-0.105224609375,-50.39215087890625,-57.36541748046875,249.99237060546875
-1.080322265625,-0.266357421875,-0.257080078125,-69.15283203125,-80.68084716796875,249.99237060546875
-1.52392578125,-1.7510986328125,-0.43603515625,-70.25909423828125,-90.93475341796875,249.99237060546875
-1.8282470703125,-2.0,-0.6024169921875,-53.03192138671875,-84.1217041015625,249.99237060546875
-2.0,-2.0,-0.665771484375,-31.71539306640625,-57.10601806640625,249.99237060546875
-2.0,-2.0,-0.5887451171875,-19.56939697265625,-20.9808349609375,249.99237060546875
-1.8533935546875,-2.0,-0.4803466796875,0.89263916015625,-0.579833984375,116.99676513671875
-1.6177978515625,-2.0,-0.45654296875,24.200439453125,-3.89862060546875,-2.5482177734375
-1.384033203125,-2.0,-0.534423828125,39.459228515625,-16.39556884765625,-85.36529541015625
-1.15625,-2.0,-0.652587890625,57.037353515625,-25.0244140625,-139.44244384765625
-0.9468994140625,-1.84912109375,-0.735107421875,62.47711181640625,-20.2484130859375,-179.5654296875
-0.7606201171875,-1.240966796875,-0.72802734375,60.78338623046875,-2.9754638671875,-215.484619140625
-0.5633544921875,-0.554931640625,-0.6480712890625,55.01556396484375,17.2119140625,-250.0
-0.3837890625,0.202392578125,-0.5260009765625,41.89300537109375,35.65216064453125,-250.0
-0.22412109375,0.99609375,-0.3836669921875,35.94207763671875,50.262451171875,-250.0
-0.081298828125,1.8016357421875,-0.2056884765625,29.96063232421875,61.36322021484375,-250.0
0.0126953125,1.99993896484375,-0.019775390625,7.568359375,63.3697509765625,-250.0
0.05615234375,1.99993896484375,0.1175537109375,-13.54217529296875,49.896240234375,-186.66839599609375
-0.024169921875,1.99993896484375,0.1689453125,-33.5540771484375,21.29364013671875,-69.60296630859375
-0.1943359375,1.99993896484375,0.0775146484375,-48.0499267578125,-19.66094970703125,74.462890625
-0.4788818359375,1.3408203125,-0.130859375,-59.12017822265625,-63.04168701171875,213.68408203125
-0.8116455078125,0.1668701171875,-0.4017333984375,-78.2623291015625,-92.68951416015625,249.99237060546875
-1.1851806640625,-1.1024169921875,-0.6505126953125,-89.7064208984375,-100.433349609375,249.99237060546875
-1.5863037109375,-2.0,-0.861328125,-74.1729736328125,-92.67425537109375,249.99237060546875
-1.9293212890625,-2.0,-0.9771728515625,-26.824951171875,-68.29071044921875,249.99237060546875
-2.0,-2.0,-0.9295654296875,17.608642578125,-26.4434814453125,249.99237060546875
-2.0,-2.0,-0.6956787109375,42.28973388671875,20.3704833984375,216.02630615234375
-2.0,-2.0,-0.4305419921875,57.47222900390625,44.97528076171875,46.051025390625
-1.779296875,-2.0,-0.328369140625,72.15118408203125,33.01239013671875,-88.592529296875
-1.48095703125,-2.0,-0.3983154296875,88.44757080078125,5.88226318359375,-176.055908203125
-1.185546875,-1.8978271484375,-0.53076171875,93.841552734375,-8.94927978515625,-228.49273681640625
-0.8978271484375,-1.157470703125,-0.6068115234375,90.2252197265625,-1.22833251953125,-250.0
-0.61962890625,-0.394287109375,-0.5413818359375,80.34515380859375,24.078369140625,-250.0
-0.3902587890625,0.43701171875,-0.3148193359375,63.89617919921875,57.5103759765625,-250.0
-0.2100830078125,1.3350830078125,0.0040283203125,49.8046875,81.65740966796875,-250.0
-0.058349609375,1.99993896484375,0.27880859375,32.90557861328125,80.902099609375,-250.0
0.0355224609375,1.99993896484375,0.3890380859375,8.880615234375,49.13330078125,-250.0
0.084228515625,1.99993896484375,0.2615966796875,-20.17974853515625,-5.51605224609375,-186.7523193359375
-0.046142578125,1.99993896484375,-0.0592041015625,-42.80853271484375,-67.98553466796875,-26.18408203125
-0.325439453125,1.99993896484375,-0.4229736328125,-58.9752197265625,-110.86273193359375,149.90997314453125
-0.7252197265625,0.72119140625,-0.755615234375,-66.9403076171875,-129.5623779296875,249.99237060546875
-1.1275634765625,-0.68896484375,-0.98876953125,-69.580078125,-121.25396728515625,249.99237060546875
-1.572021484375,-2.0,-1.0985107421875,-58.79974365234375,-92.43011474609375,249.99237060546875
-1.966064453125,-2.0,-1.0638427734375,-16.82281494140625,-50.46844482421875,249.99237060546875
-2.0,-2.0,-0.8359375,34.3170166015625,2.73895263671875,249.99237060546875
-2.0,-2.0,-0.444091796875,62.73651123046875,49.64447021484375,249.99237060546875
-2.0,-2.0,-0.103759765625,73.0438232421875,61.1419677734375,103.912353515625
-2.0,-2.0,-0.03076171875,82.67974853515625,27.9388427734375,-51.59759521484375
-1.6910400390625,-2.0,-0.1944580078125,84.1217041015625,-16.05987548828125,-172.515869140625
-1.3408203125,-1.9635009765625,-0.4283447265625,80.86395263671875,-36.72027587890625,-250.0
-0.9864501953125,-1.017578125,-0.56103515625,78.9642333984375,-23.10943603515625,-250.0
-0.65478515625,-0.1229248046875,-0.4801025390625,78.17840576171875,15.9759521484375,-250.0
-0.3660888671875,0.7342529296875,-0.2178955078125,74.97406005859375,55.2978515625,-250.0
-0.142578125,1.55859375,0.0836181640625,62.67547607421875,69.51904296875,-250.0
0.0155029296875,1.99993896484375,0.2353515625,39.7796630859375,48.187255859375,-250.0
0.1072998046875,1.99993896484375,0.16552734375,8.33892822265625,2.3345947265625,-247.2991943359375
0.119873046875,1.99993896484375,-0.0838623046875,-28.045654296875,-46.8597412109375,-143.86749267578125
-0.0086669921875,1.99993896484375,-0.4144287109375,-53.8330078125,-88.19580078125,0.40435791015625
-0.2923583984375,1.923095703125,-0.70703125,-74.005126953125,-107.7728271484375,157.14263916015625
-0.725830078125,0.6781005859375,-0.9119873046875,-79.4830322265625,-107.44476318359375,249.99237060546875
-1.1614990234375,-0.682373046875,-1.0255126953125,-78.643798828125,-89.19525146484375,249.99237060546875
-1.6656494140625,-2.0,-1.0423583984375,-57.64007568359375,-58.7310791015625,249.99237060546875
-2.0,-2.0,-0.9619140625,-9.65118408203125,-18.01300048828125,249.99237060546875
-2.0,-2.0,-0.7041015625,45.98236083984375,31.48651123046875,249.99237060546875
-2.0,-2.0,-0.338134765625,70.5413818359375,70.65582275390625,240.8599853515625
-2.0,-2.0,-0.080078125,78.033447265625,74.19586181640625,60.17303466796875
-1.681396484375,-2.0,-0.0391845703125,85.2203369140625,45.928955078125,-94.1619873046875
-1.2904052734375,-2.0,-0.119384765625,85.36529541015625,20.91217041015625,-211.87591552734375
-0.9044189453125,-1.0538330078125,-0.163818359375,85.53314208984375,18.51654052734375,-250.0
-0.585205078125,0.0074462890625,-0.067138671875,74.82147216796875,35.369873046875,-250.0
-0.3248291015625,0.9576416015625,0.17822265625,51.42974853515625,56.1065673828125,-250.0
-0.1336669921875,1.68212890625,0.420654296875,21.4385986328125,52.10113525390625,-250.0
-0.029541015625,1.99993896484375,0.451171875,-15.26641845703125,9.26971435546875,-215.26336669921875
-0.0633544921875,1.99993896484375,0.2625732421875,-49.7589111328125,-50.16326904296875,-105.28564453125
-0.181640625,1.5299072265625,-0.0550537109375,-75.68359375,-99.334716796875,10.6964111328125
-0.332763671875,0.84716796875,-0.3929443359375,-81.2835693359375,-126.5869140625,113.0523681640625
-0.47265625,0.11181640625,-0.6859130859375,-79.40673828125,-130.0506591796875,182.3272705078125
-0.5595703125,-0.5113525390625,-0.860107421875,-67.81005859375,-112.28179931640625,211.0137939453125
-0.5977783203125,-0.9560546875,-0.8807373046875,-56.732177734375,-79.071044921875,211.02142333984375
-0.8802490234375,-1.70166015625,-0.2147216796875,-46.18072509765625,-54.931640625,188.2171630859375
-0.7825927734375,-1.530517578125,-0.1029052734375,29.21295166015625,-115.7684326171875,103.7139892578125
-0.8790283203125,-1.5352783203125,-1.171875,-59.33380126953125,-159.64508056640625,38.6199951171875
-0.56689453125,-0.3427734375,-0.83203125,-104.1259765625,-105.94940185546875,-127.471923828125
-0.677734375,-0.5821533203125,-0.7783203125,-53.3905029296875,-90.21759033203125,-154.7393798828125
-0.4188232421875,-0.3189697265625,-0.5108642578125,-5.096435546875,-96.29058837890625,-178.70330810546875
-0.3076171875,-0.44091796875,-0.4083251953125,-7.6141357421875,-112.46490478515625,-175.57525634765625
-0.225341796875,-0.594482421875,-0.369384765625,-16.17431640625,-127.23541259765625,-165.679931640625
-0.1651611328125,-0.687255859375,-0.405517578125,-19.1802978515625,-132.36236572265625,-153.78570556640625
-0.03271484375,-0.772216796875,-0.4508056640625,1.6937255859375,-123.55804443359375,-138.0767822265625
0.0247802734375,-0.817626953125,-0.4217529296875,41.0614013671875,-110.13031005859375,-107.0709228515625
0.0814208984375,-0.8868408203125,-0.3199462890625,63.66729736328125,-70.8770751953125,-74.07379150390625
0.100830078125,-0.9337158203125,-0.1954345703125,50.8575439453125,-24.66583251953125,-36.1785888671875
0.1199951171875,-0.9676513671875,-0.1053466796875,8.30078125,26.2451171875,1.9378662109375
0.1025390625,-0.9808349609375,-0.0633544921875,-56.99920654296875,74.3255615234375,40.99273681640625
0.0540771484375,-0.9600830078125,-0.0902099609375,-124.9542236328125,119.81201171875,77.45361328125
-0.007568359375,-0.911376953125,-0.1497802734375,-185.546875,168.63250732421875,109.24530029296875
-0.072509765625,-0.8551025390625,-0.2398681640625,-230.743408203125,217.72003173828125,125.80108642578125
-0.12744140625,-0.917724609375,-0.4366455078125,-250.0,249.99237060546875,123.3978271484375
-0.1578369140625,-0.8603515625,-0.5364990234375,-250.0,249.99237060546875,113.5101318359375
-0.144775390625,-0.8291015625,-0.60888671875,-222.808837890625,249.99237060546875,108.673095703125
-0.1129150390625,-0.8165283203125,-0.6336669921875,-184.14306640625,249.99237060546875,113.677978515625
-0.0712890625,-0.8182373046875,-0.6317138671875,-154.47998046875,249.99237060546875,118.316650390625
-0.024658203125,-0.8238525390625,-0.6263427734375,-126.312255859375,249.99237060546875,115.2496337890625
0.0205078125,-0.8116455078125,-0.630615234375,-100.9368896484375,246.1090087890625,103.81317138671875
0.0439453125,-0.7999267578125,-0.64990234375,-90.12603759765625,186.05804443359375,86.64703369140625
0.0440673828125,-0.792236328125,-0.6895751953125,-78.65142822265625,123.992919921875,67.1234130859375
0.0404052734375,-0.7750244140625,-0.7259521484375,-57.0831298828125,69.86236572265625,46.89788818359375
0.0352783203125,-0.7481689453125,-0.75,-34.759521484375,27.16064453125,27.19879150390625
0.029296875,-0.7314453125,-0.7723388671875,-25.73394775390625,-1.983642578125,10.5133056640625
0.0318603515625,-0.7264404296875,-0.7900390625,-22.48382568359375,-17.35687255859375,-1.7852783203125
0.023681640625,-0.7315673828125,-0.790771484375,-13.00048828125,-23.1170654296875,-6.15692138671875
0.0267333984375,-0.74169921875,-0.77783203125,2.57110595703125,-24.69635009765625,-5.3253173828125
-0.0006103515625,-0.7603759765625,-0.745361328125,18.2647705078125,-20.721435546875,0.701904296875
-0.0169677734375,-0.7823486328125,-0.7017822265625,27.93121337890625,-14.9688720703125,3.692626953125
-0.02392578125,-0.80322265625,-0.6591796875,27.6031494140625,-9.307861328125,3.7689208984375
-0.028564453125,-0.813720703125,-0.6392822265625,17.4713134765625,-6.81304931640625,2.410888671875
-0.0316162109375,-0.811279296875,-0.64697265625,3.3111572265625,-6.14166259765625,0.1068115234375
-0.018310546875,-0.7962646484375,-0.68017578125,-6.85882568359375,-5.11932373046875,-1.73187255859375
0.0228271484375,-0.7486572265625,-0.707275390625,-11.5966796875,-3.12042236328125,1.51824951171875
-0.00732421875,-0.78515625,-0.724365234375,-31.73828125,0.3662109375,6.7291259765625
-0.0528564453125,-0.7802734375,-0.742919921875,-18.9208984375,2.57110595703125,4.08935546875
-0.029052734375,-0.7899169921875,-0.701904296875,11.0015869140625,4.608154296875,3.65447998046875
0.0008544921875,-0.8519287109375,-0.5062255859375,9.9945068359375,6.01959228515625,8.36944580078125
0.0003662109375,-0.89306640625,-0.48583984375,-51.49078369140625,-0.1220703125,4.6844482421875
-0.0338134765625,-0.885009765625,-0.576171875,-91.2322998046875,-4.24957275390625,-8.36944580078125
-0.0609130859375,-0.830810546875,-0.6856689453125,-84.63287353515625,-5.74493408203125,-24.68109130859375
-0.061767578125,-0.7711181640625,-0.771728515625,-47.4853515625,-9.9029541015625,-27.33612060546875
-0.045166015625,-0.7166748046875,-0.8052978515625,-3.692626953125,-14.82391357421875,-19.58465576171875
-0.0386962890625,-0.7086181640625,-0.802978515625,17.06695556640625,-15.2587890625,-11.6424560546875
-0.0400390625,-0.722900390625,-0.788818359375,23.25439453125,-13.6871337890625,-8.880615234375
-0.0380859375,-0.7371826171875,-0.765869140625,31.13555908203125,-13.73291015625,-8.36944580078125
-0.0396728515625,-0.7493896484375,-0.7393798828125,36.15570068359375,-14.1143798828125,-5.8441162109375
-0.0391845703125,-0.7689208984375,-0.7147216796875,35.6597900390625,-14.251708984375,-3.509521484375
-0.0374755859375,-0.77880859375,-0.694091796875,31.31103515625,-11.94000244140625,-2.471923828125
-0.0220947265625,-0.7958984375,-0.677734375,22.49908447265625,-8.5296630859375,-1.251220703125
-0.020263671875,-0.800537109375,-0.6678466796875,15.19775390625,-5.30242919921875,-0.93841552734375
-0.0264892578125,-0.79931640625,-0.671875,6.8817138671875,-3.6163330078125,-0.69427490234375
-0.020751953125,-0.7950439453125,-0.6798095703125,0.05340576171875,-2.08282470703125,-1.13677978515625
-0.01904296875,-0.7886962890625,-0.6961669921875,-3.41033935546875,-2.66265869140625,-0.63323974609375
-0.0208740234375,-0.7843017578125,-0.7093505859375,-2.13623046875,-3.59344482421875,0.762939453125
-0.0126953125,-0.7847900390625,-0.7071533203125,2.62451171875,-2.57110595703125,3.56292724609375
-0.0177001953125,-0.7867431640625,-0.703857421875,8.07952880859375,-4.6234130859375,7.24029541015625
-0.0152587890625,-0.7908935546875,-0.6937255859375,12.97760009765625,-7.4920654296875,10.0555419921875
-0.02978515625,-0.793701171875,-0.692626953125,16.1285400390625,-12.35198974609375,12.542724609375
-0.0477294921875,-0.798095703125,-0.685302734375,18.44024658203125,-13.81683349609375,12.97760009765625
-0.045654296875,-0.8045654296875,-0.6708984375,18.8446044921875,-10.93292236328125,10.94818115234375
-0.04638671875,-0.8109130859375,-0.654296875,15.045166015625,-5.8441162109375,10.467529296875
-0.0380859375,-0.8150634765625,-0.64208984375,6.49261474609375,-1.708984375,10.589599609375
-0.033447265625,-0.8106689453125,-0.65087890625,-5.04302978515625,-3.10516357421875,11.688232421875
-0.0626220703125,-0.801025390625,-0.6842041015625,-13.0462646484375,-9.78851318359375,10.50567626953125
-0.0997314453125,-0.7841796875,-0.7169189453125,-10.07843017578125,-16.7083740234375,-1.3885498046875
-0.1064453125,-0.7796630859375,-0.7166748046875,-1.36566162109375,-15.07568359375,-16.998291015625
-0.1099853515625,-0.781494140625,-0.716064453125,5.25665283203125,-13.02337646484375,-29.8004150390625
-0.095458984375,-0.7816162109375,-0.7049560546875,9.1705322265625,-7.598876953125,-38.4979248046875
-0.0880126953125,-0.7774658203125,-0.694580078125,8.50677490234375,-0.99945068359375,-40.50445556640625
-0.0697021484375,-0.783447265625,-0.69384765625,3.72314453125,-0.12969970703125,-31.63909912109375
-0.0394287109375,-0.788330078125,-0.689208984375,2.2735595703125,-2.22015380859375,-22.02606201171875
-0.0235595703125,-0.7869873046875,-0.7076416015625,6.6070556640625,-12.73345947265625,-10.71929931640625
-0.0125732421875,-0.779541015625,-0.7193603515625,19.99664306640625,-21.72088623046875,-0.55694580078125
-0.0087890625,-0.785400390625,-0.7081298828125,31.19659423828125,-20.2789306640625,3.41033935546875
-0.0052490234375,-0.79443359375,-0.6748046875,33.4320068359375,-7.9498291015625,1.47247314453125
0.005859375,-0.8138427734375,-0.6419677734375,20.33233642578125,6.5155029296875,4.40216064453125
0.0047607421875,-0.830078125,-0.634521484375,9.5367431640625,10.91766357421875,11.0931396484375
0.0078125,-0.8311767578125,-0.6348876953125,9.54437255859375,8.36181640625,12.19940185546875
0.0020751953125,-0.8338623046875,-0.6287841796875,10.2081298828125,7.10296630859375,9.4146728515625
-0.0054931640625,-0.8380126953125,-0.6102294921875,7.5531005859375,8.62884521484375,6.195068359375
-0.007568359375,-0.837158203125,-0.6107177734375,-2.3956298828125,6.24847412109375,4.6234130859375
-0.0189208984375,-0.82568359375,-0.6361083984375,-13.67950439453125,4.60052490234375,4.638671875
-0.0260009765625,-0.8154296875,-0.657470703125,-20.7672119140625,7.5836181640625,4.14276123046875
-0.0234375,-0.804443359375,-0.6756591796875,-23.46038818359375,9.552001953125,2.28118896484375
-0.03271484375,-0.7930908203125,-0.7012939453125,-22.1099853515625,9.4146728515625,0.90789794921875
-0.0391845703125,-0.7864990234375,-0.7120361328125,-15.13671875,8.9874267578125,-2.75421142578125
-0.027587890625,-0.7838134765625,-0.7076416015625,-5.71441650390625,5.523681640625,-7.66754150390625
-0.0435791015625,-0.781982421875,-0.7095947265625,1.0833740234375,0.96893310546875,-8.6669921875
-0.05517578125,-0.7835693359375,-0.7056884765625,7.27081298828125,-0.22125244140625,-6.04248046875
-0.0419921875,-0.788818359375,-0.6939697265625,10.53619384765625,-2.6702880859375,-4.35638427734375
-0.0191650390625,-0.7935791015625,-0.6807861328125,9.60540771484375,-4.75311279296875,-5.11932373046875
0.0040283203125,-0.8031005859375,-0.677978515625,7.32421875,-5.91278076171875,-1.617431640625
0.0084228515625,-0.8077392578125,-0.673583984375,9.0789794921875,-4.0740966796875,2.4566650390625
0.0091552734375,-0.8131103515625,-0.6590576171875,11.57379150390625,-0.3509521484375,5.14984130859375
0.0018310546875,-0.8172607421875,-0.6466064453125,10.8489990234375,1.1749267578125,7.59124755859375
-0.0087890625,-0.81787109375,-0.6456298828125,7.13348388671875,-2.7008056640625,7.9803466796875
-0.0174560546875,-0.8154296875,-0.652099609375,2.84576416015625,-6.8359375,7.2174072265625
-0.02685546875,-0.810546875,-0.6649169921875,0.0152587890625,-8.00323486328125,6.4849853515625
-0.03955078125,-0.8079833984375,-0.673583984375,-0.335693359375,-3.72314453125,6.6375732421875
-0.0335693359375,-0.8114013671875,-0.6611328125,0.09918212890625,3.4637451171875,6.37054443359375
-0.0279541015625,-0.81103515625,-0.65771484375,-2.17437744140625,5.67626953125,5.2337646484375
-0.0379638671875,-0.8070068359375,-0.667236328125,-6.2713623046875,6.53076171875,4.364013671875
-0.0482177734375,-0.8016357421875,-0.679931640625,-8.9569091796875,6.40106201171875,-0.09918212890625
-0.041015625,-0.7972412109375,-0.6873779296875,-8.81195068359375,6.70623779296875,-6.500244140625
-0.0361328125,-0.7921142578125,-0.690185546875,-7.63702392578125,7.7362060546875,-9.94110107421875
-0.0557861328125,-0.7860107421875,-0.7022705078125,-5.72967529296875,7.01141357421875,-9.80377197265625
-0.05126953125,-0.7840576171875,-0.704833984375,-0.8392333984375,3.60107421875,-6.9580078125
-0.0362548828125,-0.7833251953125,-0.7054443359375,3.85284423828125,-3.448486328125,-4.50897216796875
-0.0069580078125,-0.7862548828125,-0.702880859375,7.45391845703125,-8.23974609375,-0.57220458984375
0.006591796875,-0.7884521484375,-0.6993408203125,10.8184814453125,-8.17108154296875,3.71551513671875
0.0108642578125,-0.799560546875,-0.6881103515625,14.3585205078125,-4.7454833984375,9.2315673828125
0.0111083984375,-0.8094482421875,-0.6658935546875,18.157958984375,-0.2288818359375,13.14544677734375
-0.0069580078125,-0.817626953125,-0.6478271484375,17.92144775390625,-0.05340576171875,13.6260986328125
-0.0250244140625,-0.822021484375,-0.63916015625,12.3443603515625,-2.46429443359375,10.76507568359375
-0.0296630859375,-0.8201904296875,-0.64501953125,4.2877197265625,-3.54766845703125,5.89752197265625
-0.0257568359375,-0.81640625,-0.650634765625,-2.96783447265625,-0.6256103515625,2.9144287109375
-0.0196533203125,-0.810546875,-0.66064453125,-8.99505615234375,2.23541259765625,2.716064453125
-0.027587890625,-0.8060302734375,-0.6705322265625,-12.6953125,4.6539306640625,3.65447998046875
-0.0322265625,-0.7994384765625,-0.684814453125,-13.51165771484375,4.47845458984375,2.7008056640625
-0.0394287109375,-0.7952880859375,-0.6943359375,-11.3525390625,4.45556640625,-0.37384033203125
-0.0355224609375,-0.7940673828125,-0.6951904296875,-7.1563720703125,3.47900390625,-5.9356689453125
-0.0289306640625,-0.79150390625,-0.6949462890625,-3.082275390625,2.105712890625,-10.07080078125
-0.0272216796875,-0.7904052734375,-0.693603515625,0.3814697265625,1.953125,-10.345458984375
-0.0421142578125,-0.7900390625,-0.693359375,2.54058837890625,3.387451171875,-9.22393798828125
-0.0294189453125,-0.7896728515625,-0.693603515625,3.74603271484375,3.0059814453125,-6.866455078125
-0.0050048828125,-0.79052734375,-0.68408203125,4.73785400390625,1.82342529296875,-3.8604736328125
0.0096435546875,-0.7926025390625,-0.6893310546875,4.03594970703125,-3.99017333984375,-0.25177001953125
0.0096435546875,-0.794189453125,-0.6929931640625,7.0343017578125,-5.0048828125,4.85992431640625
-0.004150390625,-0.7996826171875,-0.6827392578125,12.00103759765625,-2.63214111328125,8.11767578125
-0.008544921875,-0.8055419921875,-0.669921875,14.68658447265625,-2.685546875,8.8043212890625
-0.0106201171875,-0.810546875,-0.6572265625,13.34381103515625,-4.14276123046875,8.819580078125
-0.02197265625,-0.8109130859375,-0.65966796875,8.72802734375,-5.4473876953125,9.246826171875
-0.03515625,-0.8114013671875,-0.6612548828125,3.8299560546875,-2.20489501953125,9.796142578125
-0.0286865234375,-0.810546875,-0.660400390625,-0.99945068359375,1.42669677734375,7.65228271484375
-0.025390625,-0.8076171875,-0.66552734375,-5.98907470703125,2.3956298828125,5.9814453125
-0.0216064453125,-0.80224609375,-0.67724609375,-9.4757080078125,1.82342529296875,4.69207763671875
-0.040283203125,-0.7969970703125,-0.690673828125,-10.21575927734375,2.28118896484375,3.60107421875
-0.0478515625,-0.7938232421875,-0.69873046875,-7.4920654296875,3.96728515625,-0.64849853515625
-0.0360107421875,-0.7921142578125,-0.6922607421875,-3.509521484375,6.4849853515625,-5.4168701171875
-0.027099609375,-0.79345703125,-0.6925048828125,-1.99127197265625,6.0882568359375,-6.4544677734375
-0.0284423828125,-0.79296875,-0.6925048828125,-0.4119873046875,5.40924072265625,-6.683349609375
-0.0238037109375,-0.7935791015625,-0.68798828125,1.42669677734375,4.60052490234375,-5.462646484375
-0.010986328125,-0.7919921875,-0.693359375,2.84576416015625,1.40380859375,-2.0904541015625
-0.0008544921875,-0.794921875,-0.6884765625,4.5166015625,1.556396484375,2.17437744140625
0.0057373046875,-0.796630859375,-0.6834716796875,6.5765380859375,1.45721435546875,4.96673583984375
0.000244140625,-0.800048828125,-0.6759033203125,8.1634521484375,1.5869140625,8.99505615234375
-0.01171875,-0.802978515625,-0.6722412109375,8.4075927734375,-1.86920166015625,10.55145263671875
-0.031005859375,-0.80419921875,-0.67236328125,7.659912109375,-5.3863525390625,8.24737548828125
-0.0277099609375,-0.8050537109375,-0.6697998046875,6.55364990234375,-7.080078125,3.13568115234375
-0.0203857421875,-0.80712890625,-0.6651611328125,4.302978515625,-6.9580078125,0.1373291015625
-0.0120849609375,-0.8062744140625,-0.6650390625,0.29754638671875,-6.00433349609375,1.2664794921875
-0.0096435546875,-0.804443359375,-0.6732177734375,-4.180908203125,-4.63104248046875,5.2032470703125
-0.0338134765625,-0.799072265625,-0.689697265625,-6.78253173828125,-0.48828125,7.4005126953125
-0.059814453125,-0.795166015625,-0.695068359375,-4.95147705078125,5.615234375,4.52423095703125
-0.04833984375,-0.7952880859375,-0.6849365234375,-3.01361083984375,9.46044921875,-2.46429443359375
-0.0235595703125,-0.7947998046875,-0.6832275390625,-3.7841796875,6.8359375,-7.0953369140625
-0.0216064453125,-0.7904052734375,-0.69384765625,-5.02777099609375,4.69207763671875,-7.34710693359375
-0.0125732421875,-0.78759765625,-0.6962890625,-4.02069091796875,3.66973876953125,-7.01904296875
-0.0135498046875,-0.785400390625,-0.7032470703125,-1.5869140625,2.74658203125,-5.5999755859375
-0.00048828125,-0.7874755859375,-0.6973876953125,2.66265869140625,0.8544921875,-3.570556640625
-0.0045166015625,-0.7900390625,-0.6942138671875,6.46209716796875,-2.95257568359375,-1.41143798828125
0.0015869140625,-0.79248046875,-0.6890869140625,9.07135009765625,-3.04412841796875,2.8839111328125
-0.0008544921875,-0.7962646484375,-0.680419921875,10.45989990234375,-2.98309326171875,8.5601806640625
-0.0184326171875,-0.799560546875,-0.6800537109375,10.92529296875,-6.67572021484375,10.53619384765625
-0.0250244140625,-0.8023681640625,-0.6746826171875,10.64300537109375,-9.2926025390625,7.77435302734375
-0.036376953125,-0.8037109375,-0.673095703125,8.55255126953125,-8.85772705078125,4.26483154296875
-0.031494140625,-0.806396484375,-0.6661376953125,5.27191162109375,-4.79888916015625,3.48663330078125
-0.0198974609375,-0.806396484375,-0.6632080078125,0.8087158203125,-3.37982177734375,3.01361083984375
-0.0135498046875,-0.8057861328125,-0.6676025390625,-4.08172607421875,-3.5247802734375,3.83758544921875
-0.029052734375,-0.79833984375,-0.6881103515625,-6.8511962890625,-2.34222412109375,4.46319580078125
-0.0556640625,-0.7938232421875,-0.6976318359375,-5.8441162109375,3.2958984375,2.6397705078125
-0.0484619140625,-0.7938232421875,-0.6888427734375,-3.326416015625,8.44573974609375,-2.9754638671875
-0.0220947265625,-0.7950439453125,-0.6844482421875,-2.72369384765625,7.04193115234375,-6.9580078125
-0.01953125,-0.7926025390625,-0.68994140625,-3.1585693359375,4.94384765625,-6.927490234375
-0.0147705078125,-0.7911376953125,-0.6923828125,-2.2125244140625,3.35693359375,-6.2408447265625
-0.0042724609375,-0.78955078125,-0.694580078125,-0.14495849609375,1.3885498046875,-5.1727294921875
-0.004638671875,-0.7904052734375,-0.693115234375,2.31170654296875,0.54168701171875,-1.983642578125
-0.0067138671875,-0.7923583984375,-0.6898193359375,4.11224365234375,1.16729736328125,1.68609619140625
0.0020751953125,-0.7945556640625,-0.6832275390625,4.9591064453125,2.26593017578125,5.40924072265625
-0.00390625,-0.795166015625,-0.682861328125,4.5928955078125,-0.43487548828125,9.5062255859375
-0.0162353515625,-0.7935791015625,-0.6922607421875,5.01251220703125,-5.80596923828125,10.8489990234375
-0.0316162109375,-0.7933349609375,-0.6917724609375,7.53021240234375,-7.415771484375,8.1634521484375
-0.0196533203125,-0.7979736328125,-0.675048828125,9.2315673828125,-7.56072998046875,5.05828857421875
-0.01806640625,-0.8018798828125,-0.668701171875,6.44683837890625,-7.69805908203125,4.89044189453125
-0.0084228515625,-0.8046875,-0.6671142578125,1.953125,-7.0953369140625,8.43048095703125
-0.0205078125,-0.80517578125,-0.6722412109375,-1.4801025390625,-7.720947265625,8.39996337890625
-0.03857421875,-0.799560546875,-0.6810302734375,-2.7008056640625,-7.89642333984375,1.45721435546875
-0.0584716796875,-0.7939453125,-0.6912841796875,-4.69207763671875,-5.13458251953125,-4.5013427734375
-0.057861328125,-0.793701171875,-0.69140625,-5.24139404296875,0.41961669921875,-7.32421875
-0.034423828125,-0.7919921875,-0.691650390625,-5.0201416015625,3.753662109375,-10.24627685546875
-0.0240478515625,-0.7911376953125,-0.6925048828125,-5.10406494140625,6.378173828125,-8.97979736328125
-0.019287109375,-0.7890625,-0.6937255859375,-4.49371337890625,6.16455078125,-6.64520263671875
-0.015380859375,-0.785888671875,-0.702880859375,-2.3040771484375,3.77655029296875,-5.04302978515625
-0.0057373046875,-0.7864990234375,-0.697265625,1.46484375,2.5634765625,-3.25775146484375
0.0113525390625,-0.7879638671875,-0.690673828125,4.3182373046875,-0.091552734375,1.07574462890625
0.0072021484375,-0.791259765625,-0.6898193359375,5.76019287109375,-3.99017333984375,9.185791015625
-0.0167236328125,-0.791015625,-0.6988525390625,7.8125,-10.467529296875,12.80975341796875
-0.0340576171875,-0.790771484375,-0.6949462890625,11.3067626953125,-12.62664794921875,9.11712646484375
-0.0504150390625,-0.7958984375,-0.68359375,12.87078857421875,-10.50567626953125,6.16455078125
-0.0322265625,-0.80419921875,-0.6634521484375,10.8642578125,-4.75311279296875,4.79888916015625
-0.024658203125,-0.8057861328125,-0.6611328125,4.180908203125,-1.39617919921875,6.55364990234375
-0.0439453125,-0.80224609375,-0.67041015625,-2.9144287109375,-0.89263916015625,5.9814453125
-0.0526123046875,-0.7933349609375,-0.6923828125,-7.14874267578125,-2.25067138671875,-0.18310546875
-0.0450439453125,-0.7880859375,-0.7027587890625,-7.14874267578125,0.457763671875,-5.401611328125
-0.0384521484375,-0.7869873046875,-0.6998291015625,-4.61578369140625,4.425048828125,-8.50677490234375
-0.034423828125,-0.7874755859375,-0.69482421875,-2.7313232421875,6.17218017578125,-9.42230224609375
-0.020751953125,-0.788818359375,-0.6932373046875,-1.93023681640625,6.24847412109375,-9.5367431640625
-0.0057373046875,-0.78857421875,-0.6976318359375,-1.0833740234375,4.302978515625,-7.59124755859375
0.0023193359375,-0.7880859375,-0.69580078125,0.3662109375,2.685546875,-5.096435546875
-0.008056640625,-0.7874755859375,-0.699462890625,1.94549560546875,0.67901611328125,-1.18255615234375
0.0103759765625,-0.7894287109375,-0.691650390625,4.34112548828125,0.43487548828125,2.81524658203125
0.001220703125,-0.7913818359375,-0.693115234375,5.88226318359375,-3.8604736328125,8.76617431640625
-0.0179443359375,-0.7918701171875,-0.69775390625,8.55255126953125,-8.8043212890625,11.016845703125
-0.0198974609375,-0.79541015625,-0.6885986328125,11.71112060546875,-10.07080078125,8.26263427734375
-0.0272216796875,-0.8004150390625,-0.6759033203125,11.29913330078125,-5.79071044921875,6.52313232421875
-0.0400390625,-0.803955078125,-0.66796875,7.720947265625,1.495361328125,6.56890869140625
-0.0313720703125,-0.8094482421875,-0.6578369140625,1.85394287109375,6.99615478515625,7.16400146484375
-0.0235595703125,-0.80322265625,-0.670654296875,-5.77545166015625,5.2337646484375,5.2337646484375
-0.0367431640625,-0.79296875,-0.688720703125,-9.51385498046875,1.50299072265625,1.33514404296875
-0.044921875,-0.783447265625,-0.711181640625,-9.09423828125,-0.35858154296875,-2.9144287109375
-0.0374755859375,-0.78076171875,-0.71435546875,-4.52423095703125,1.89208984375,-5.13458251953125
-0.0272216796875,-0.783935546875,-0.7061767578125,1.27410888671875,2.11334228515625,-7.62176513671875
-0.0091552734375,-0.7869873046875,-0.693115234375,4.52423095703125,-0.34332275390625,-9.2620849609375
-0.0133056640625,-0.7879638671875,-0.6968994140625,4.57763671875,-3.3416748046875,-6.7596435546875
-0.013427734375,-0.7904052734375,-0.6912841796875,5.0048828125,-3.0059814453125,-5.01251220703125
-0.015380859375,-0.7911376953125,-0.690673828125,4.64630126953125,-3.7078857421875,-4.05120849609375
-0.0069580078125,-0.7908935546875,-0.68994140625,3.83758544921875,-3.63922119140625,-0.75531005859375
-0.0040283203125,-0.7901611328125,-0.6944580078125,4.0130615234375,-7.1258544921875,4.23431396484375
-0.0220947265625,-0.7900390625,-0.6986083984375,6.06536865234375,-10.406494140625,4.85992431640625
-0.03173828125,-0.7945556640625,-0.6903076171875,8.7738037109375,-8.4228515625,3.45611572265625
-0.025634765625,-0.8009033203125,-0.67333984375,8.97979736328125,-3.631591796875,2.70843505859375
-0.0174560546875,-0.802734375,-0.66748046875,4.8828125,-0.885009765625,3.082275390625
-0.0345458984375,-0.8001708984375,-0.676513671875,-0.946044921875,0.38909912109375,3.5400390625
-0.0360107421875,-0.7957763671875,-0.6890869140625,-4.84466552734375,2.41851806640625,0.701904296875
-0.0277099609375,-0.7938232421875,-0.691162109375,-5.86700439453125,7.08770751953125,-1.9683837890625
-0.0142822265625,-0.79150390625,-0.6905517578125,-5.950927734375,10.7421875,-2.73895263671875
-0.0037841796875,-0.7884521484375,-0.69384765625,-5.8746337890625,9.98687744140625,-1.220703125
-0.0078125,-0.784912109375,-0.7037353515625,-4.7454833984375,4.7760009765625,0.58746337890625
-0.0146484375,-0.7811279296875,-0.7132568359375,-0.8087158203125,-0.5340576171875,1.38092041015625
-0.0167236328125,-0.7821044921875,-0.710693359375,5.43975830078125,-2.28118896484375,1.38092041015625
-0.017333984375,-0.78857421875,-0.695068359375,10.6048583984375,-1.068115234375,1.9683837890625
-0.0101318359375,-0.79638671875,-0.677734375,11.3067626953125,-0.55694580078125,2.99835205078125
-0.020751953125,-0.799072265625,-0.6751708984375,7.4615478515625,-2.49481201171875,3.86810302734375
-0.024169921875,-0.796630859375,-0.6824951171875,2.3651123046875,-2.22015380859375,3.15093994140625
-0.0220947265625,-0.7943115234375,-0.687744140625,-1.4190673828125,2.13623046875,3.4637451171875
-0.0157470703125,-0.7933349609375,-0.688232421875,-3.60107421875,6.69097900390625,4.4097900390625
-0.00927734375,-0.7894287109375,-0.695556640625,-4.5928955078125,6.561279296875,5.0048828125
-0.0064697265625,-0.7869873046875,-0.7000732421875,-3.48663330078125,3.1585693359375,5.828857421875
-0.0147705078125,-0.783935546875,-0.7098388671875,-0.09918212890625,-3.936767578125,5.02777099609375
-0.028076171875,-0.785400390625,-0.7105712890625,5.16510009765625,-6.3018798828125,3.57818603515625
-0.0345458984375,-0.7908935546875,-0.69873046875,9.857177734375,-4.2877197265625,1.99127197265625
-0.030029296875,-0.799072265625,-0.6773681640625,10.88714599609375,-0.54168701171875,-0.00762939453125
-0.027587890625,-0.802734375,-0.667236328125,6.40106201171875,0.3509521484375,-2.37274169921875
-0.018798828125,-0.7998046875,-0.672607421875,-0.9765625,-1.13677978515625,-4.730224609375
-0.0213623046875,-0.791259765625,-0.693603515625,-6.9122314453125,-2.09808349609375,-4.92095947265625
-0.0162353515625,-0.7840576171875,-0.7071533203125,-7.415771484375,-2.105712890625,-4.94384765625
-0.0079345703125,-0.779541015625,-0.714599609375,-3.31878662109375,-3.66973876953125,-4.39453125
-0.0118408203125,-0.7803955078125,-0.7147216796875,3.0975341796875,-4.0740966796875,-1.59454345703125
-0.0152587890625,-0.78564453125,-0.704345703125,9.59014892578125,-3.47900390625,0.69427490234375
-0.0047607421875,-0.792724609375,-0.68408203125,12.80975341796875,-3.1585693359375,2.38800048828125
-0.011962890625,-0.7978515625,-0.677001953125,10.986328125,-6.103515625,6.103515625
-0.031982421875,-0.7974853515625,-0.6822509765625,7.8582763671875,-9.2315673828125,6.103515625
-0.039794921875,-0.7979736328125,-0.68359375,5.126953125,-6.18743896484375,3.12042236328125
-0.030517578125,-0.7991943359375,-0.6787109375,2.35748291015625,-0.457763671875,-0.2593994140625
-0.019775390625,-0.7996826171875,-0.675048828125,-1.4190673828125,4.2266845703125,-1.312255859375
-0.0184326171875,-0.7977294921875,-0.6812744140625,-5.5694580078125,4.93621826171875,-1.21307373046875
-0.016357421875,-0.7913818359375,-0.6937255859375,-8.01849365234375,4.57000732421875,-1.15966796875
-0.0150146484375,-0.7852783203125,-0.7060546875,-6.90460205078125,2.89154052734375,-1.1444091796875
-0.0125732421875,-0.7822265625,-0.7117919921875,-2.09808349609375,-0.37384033203125,-1.3427734375
-0.0081787109375,-0.5274658203125,-0.725830078125,4.40216064453125,-4.49371337890625,-1.38092041015625
-0.05615234375,-0.3775634765625,-1.021240234375,-152.923583984375,14.6636962890625,25.24566650390625
-0.061767578125,-0.588134765625,-1.2012939453125,-250.0,56.3201904296875,31.85272216796875
-0.0374755859375,-0.7265625,-1.1895751953125,-164.703369140625,81.09283447265625,25.970458984375
0.02490234375,-0.660888671875,-0.97412109375,39.36767578125,86.11297607421875,38.15460205078125
0.04736328125,-0.6649169921875,-0.7733154296875,152.83203125,69.061279296875,66.09344482421875
0.0050048828125,-0.7872314453125,-0.6103515625,139.404296875,49.75128173828125,78.19366455078125
-0.15869140625,-0.857421875,-0.2940673828125,96.22955322265625,24.7955322265625,58.4869384765625
-0.0853271484375,-0.84814453125,-0.361328125,38.482666015625,4.21142578125,32.562255859375
-0.0413818359375,-0.9163818359375,-0.5380859375,-18.79119873046875,-2.4261474609375,6.9427490234375
0.0013427734375,-0.860595703125,-0.61865234375,-37.78076171875,0.90789794921875,-6.44683837890625
0.009765625,-0.8092041015625,-0.6815185546875,-34.44671630859375,3.37982177734375,-3.04412841796875
0.01513671875,-0.7696533203125,-0.7230224609375,-19.44732666015625,6.17218017578125,2.32696533203125
0.013427734375,-0.760986328125,-0.7381591796875,-8.4991455078125,6.21795654296875,3.63922119140625
0.01171875,-0.7598876953125,-0.7366943359375,1.068115234375,3.86810302734375,4.2266845703125
0.0029296875,-0.763916015625,-0.7296142578125,8.697509765625,0.49591064453125,5.40924072265625
-0.0067138671875,-0.7696533203125,-0.7174072265625,12.45880126953125,-1.52587890625,6.15692138671875
-0.013916015625,-0.7750244140625,-0.707763671875,11.83319091796875,-2.76947021484375,5.096435546875
-0.017822265625,-0.7774658203125,-0.70263671875,7.49969482421875,-1.5869140625,3.45611572265625
-0.0133056640625,-0.7747802734375,-0.70556640625,1.0833740234375,-0.1068115234375,1.33514404296875
-0.01025390625,-0.7686767578125,-0.7198486328125,-4.57000732421875,-0.1678466796875,-0.1220703125
-0.0078125,-0.760009765625,-0.73681640625,-6.44683837890625,-1.1138916015625,-0.5950927734375
-0.0078125,-0.755859375,-0.747314453125,-3.3721923828125,-1.1749267578125,-0.06866455078125
-0.0067138671875,-0.7574462890625,-0.743408203125,2.43377685546875,-0.640869140625,1.10626220703125
-0.0079345703125,-0.762451171875,-0.73193359375,7.1258544921875,-1.13677978515625,2.197265625
-0.0128173828125,-0.767578125,-0.720947265625,8.47625732421875,-2.13623046875,2.716064453125
-0.01708984375,-0.7706298828125,-0.71435546875,6.59942626953125,-2.0904541015625,2.3040771484375
-0.0164794921875,-0.770751953125,-0.715087890625,2.8533935546875,-1.251220703125,1.10626220703125
-0.0128173828125,-0.767333984375,-0.7213134765625,-0.9307861328125,-0.7781982421875,-0.030517578125
-0.01025390625,-0.762939453125,-0.731689453125,-2.7313232421875,-0.946044921875,-0.396728515625
-0.0093994140625,-0.759521484375,-0.7392578125,-1.53350830078125,-1.21307373046875,-0.02288818359375
-0.009765625,-0.7601318359375,-0.7379150390625,1.8463134765625,-1.22833251953125,0.7476806640625
-0.010986328125,-0.7628173828125,-0.73046875,5.157470703125,-1.30462646484375,1.53350830078125
-0.013427734375,-0.7667236328125,-0.7222900390625,6.3629150390625,-1.5716552734375,1.94549560546875
-0.0159912109375,-0.76904296875,-0.71728515625,5.0506591796875,-1.68609619140625,1.68609619140625
-0.014404296875,-0.7686767578125,-0.7171630859375,2.288818359375,-1.3427734375,0.946044921875
-0.015380859375,-0.765869140625,-0.724365234375,-0.28228759765625,-0.74005126953125,0.5340576171875
-0.0050048828125,-0.76416015625,-0.725830078125,-1.5106201171875,0.885009765625,0.83160400390625
-0.0137939453125,-0.760986328125,-0.7354736328125,-1.373291015625,-1.3427734375,1.35040283203125
-0.017333984375,-0.75927734375,-0.7408447265625,1.22833251953125,-2.9754638671875,0.091552734375
-0.0103759765625,-0.762451171875,-0.733154296875,4.8980712890625,-1.4190673828125,-0.95367431640625
-0.006591796875,-0.7677001953125,-0.7186279296875,6.1187744140625,1.09100341796875,0.51116943359375
-0.0107421875,-0.769287109375,-0.714599609375,3.7994384765625,0.31280517578125,2.00653076171875
-0.0166015625,-0.7662353515625,-0.7236328125,0.701904296875,-2.4261474609375,0.9918212890625
-0.0135498046875,-0.763671875,-0.7313232421875,-0.32806396484375,-2.43377685546875,-0.55694580078125
-0.0064697265625,-0.7630615234375,-0.7314453125,0.6256103515625,-0.40435791015625,-0.396728515625
-0.0081787109375,-0.7630615234375,-0.7301025390625,1.86920166015625,-0.1983642578125,0.91552734375
-0.01220703125,-0.762939453125,-0.7303466796875,2.9449462890625,-2.0751953125,1.02996826171875
-0.0069580078125,-0.7633056640625,-0.728271484375,4.0130615234375,-2.8076171875,0.823974609375
-0.0142822265625,-0.7640380859375,-0.7279052734375,4.3792724609375,-2.72369384765625,1.91497802734375
-0.0162353515625,-0.7664794921875,-0.722412109375,4.14276123046875,-1.5106201171875,1.77764892578125
-0.0093994140625,-0.767578125,-0.718994140625,2.40325927734375,-0.823974609375,1.15966796875
-0.01318359375,-0.76416015625,-0.7283935546875,0.14495849609375,-1.8768310546875,1.312255859375
-0.0191650390625,-0.7611083984375,-0.7388916015625,0.3204345703125,-2.75421142578125,1.06048583984375
-0.016357421875,-0.7623291015625,-0.736083984375,2.655029296875,-0.03814697265625,0.45013427734375
-0.0101318359375,-0.766845703125,-0.7249755859375,4.49371337890625,2.52532958984375,-0.81634521484375
-0.016357421875,-0.771484375,-0.7147216796875,3.11279296875,3.95965576171875,-1.18255615234375
-0.0186767578125,-0.7742919921875,-0.706298828125,-1.251220703125,4.87518310546875,-2.58636474609375
0.008056640625,-0.768798828125,-0.709228515625,-7.7972412109375,4.32586669921875,-3.631591796875
-0.0146484375,-0.76025390625,-0.7371826171875,-12.91656494140625,-0.96893310546875,-1.79290771484375
-0.02294921875,-0.7493896484375,-0.7606201171875,-11.05499267578125,-3.51715087890625,-4.33349609375
-0.02294921875,-0.748291015625,-0.761962890625,-3.5552978515625,-2.63214111328125,-6.866455078125
-0.002197265625,-0.751220703125,-0.749267578125,3.2806396484375,-0.90789794921875,-5.4779052734375
0.0072021484375,-0.7587890625,-0.7340087890625,7.05718994140625,1.3275146484375,0.732421875
-0.0167236328125,-0.761962890625,-0.7269287109375,8.8043212890625,1.8463134765625,1.2359619140625
-0.0172119140625,-0.7672119140625,-0.718505859375,6.500244140625,3.4637451171875,-0.23651123046875
-0.0086669921875,-0.767822265625,-0.714111328125,1.47247314453125,4.60052490234375,-1.617431640625
-0.00341796875,-0.7640380859375,-0.72412109375,-3.82232666015625,2.9296875,-2.4871826171875
0.0006103515625,-0.7567138671875,-0.7398681640625,-6.17218017578125,1.73187255859375,-2.0294189453125
-0.008544921875,-0.751708984375,-0.7506103515625,-4.119873046875,1.617431640625,-1.1749267578125
-0.006591796875,-0.7490234375,-0.75244140625,0.80108642578125,0.9613037109375,-0.244140625
0.0003662109375,-0.7523193359375,-0.747802734375,4.852294921875,1.13677978515625,1.89971923828125
0.0050048828125,-0.75732421875,-0.7371826171875,7.72857666015625,2.3193359375,3.2958984375
0.0118408203125,-0.7646484375,-0.72412109375,8.1024169921875,4.58526611328125,3.94439697265625
0.0089111328125,-0.7691650390625,-0.715576171875,5.218505859375,5.92041015625,4.28009033203125
0.008544921875,-0.7684326171875,-0.7152099609375,0.25177001953125,4.4708251953125,2.95257568359375
0.00634765625,-0.762451171875,-0.7301025390625,-4.180908203125,-0.213623046875,0.946044921875
0.0008544921875,-0.7548828125,-0.7470703125,-4.6844482421875,-4.302978515625,-0.3814697265625
-0.00390625,-0.74951171875,-0.7557373046875,-0.19073486328125,-5.94329833984375,-0.46539306640625
0.0062255859375,-0.7489013671875,-0.7493896484375,6.20269775390625,-4.89044189453125,1.41143798828125
0.0098876953125,-0.7579345703125,-0.7349853515625,10.345458984375,-1.0223388671875,7.1563720703125
-0.007080078125,-0.76806640625,-0.7171630859375,11.20758056640625,1.5869140625,9.14764404296875
-0.003662109375,-0.7744140625,-0.701171875,6.6375732421875,2.410888671875,7.32421875
0.002685546875,-0.7723388671875,-0.7041015625,-2.23541259765625,-0.92315673828125,4.37164306640625
-0.002197265625,-0.7637939453125,-0.7281494140625,-9.7808837890625,-6.99615478515625,2.3956298828125
-0.0130615234375,-0.7542724609375,-0.746826171875,-10.56671142578125,-6.87408447265625,-0.86212158203125
-0.024169921875,-0.749267578125,-0.762451171875,-6.89697265625,-2.26593017578125,-1.8310546875
-0.0306396484375,-0.7542724609375,-0.74853515625,-1.617431640625,6.34002685546875,-5.5694580078125
-0.0242919921875,-0.76220703125,-0.7242431640625,-0.05340576171875,13.336181640625,-9.95635986328125
-0.0040283203125,-0.76025390625,-0.7119140625,-4.8675537109375,14.678955078125,-14.22119140625
0.0235595703125,-0.759765625,-0.7196044921875,-14.5263671875,15.411376953125,-13.23699951171875
0.039306640625,-0.74609375,-0.748291015625,-20.31707763671875,13.36669921875,-9.72747802734375
0.033203125,-0.736083984375,-0.7725830078125,-19.0582275390625,14.6026611328125,-2.4261474609375
0.0277099609375,-0.733154296875,-0.77783203125,-10.91766357421875,16.57867431640625,3.448486328125
0.0364990234375,-0.73779296875,-0.7628173828125,-0.23651123046875,11.1846923828125,4.69970703125
0.041259765625,-0.741455078125,-0.7525634765625,7.63702392578125,-2.044677734375,5.18035888671875
-0.0040283203125,-0.7452392578125,-0.7596435546875,12.76397705078125,-14.22882080078125,5.92803955078125
-0.0115966796875,-0.7535400390625,-0.741455078125,16.9525146484375,-13.45062255859375,0.00762939453125
0.0032958984375,-0.76220703125,-0.7171630859375,15.67840576171875,-6.2408447265625,-3.8299560546875
0.0108642578125,-0.768310546875,-0.703125,6.90460205078125,2.63214111328125,-2.6702880859375
0.0185546875,-0.761474609375,-0.7147216796875,-5.02777099609375,4.0283203125,-2.62451171875
0.0133056640625,-0.747802734375,-0.748779296875,-13.06915283203125,1.97601318359375,-2.90679931640625
0.0079345703125,-0.740234375,-0.7655029296875,-12.7716064453125,5.57708740234375,-2.5177001953125
0.01513671875,-0.739990234375,-0.7625732421875,-7.17926025390625,7.5531005859375,-4.75311279296875
0.0313720703125,-0.74267578125,-0.7510986328125,-2.23541259765625,7.537841796875,-6.00433349609375
0.03662109375,-0.743896484375,-0.7451171875,-0.75531005859375,7.34710693359375,-2.685546875
0.025390625,-0.743408203125,-0.7523193359375,-0.89263916015625,6.195068359375,1.3580322265625
0.0140380859375,-0.7440185546875,-0.756103515625,0.152587890625,6.66046142578125,2.58636474609375
0.02294921875,-0.7467041015625,-0.7459716796875,1.6326904296875,9.62066650390625,1.3580322265625
0.0423583984375,-0.7486572265625,-0.7352294921875,0.54931640625,9.09423828125,1.86920166015625
0.0435791015625,-0.74462890625,-0.7491455078125,-2.22015380859375,0.1983642578125,4.73785400390625
0.0140380859375,-0.7379150390625,-0.7679443359375,-0.823974609375,-7.59124755859375,5.584716796875
0.0072021484375,-0.737060546875,-0.7733154296875,4.96673583984375,-11.69586181640625,2.38037109375
-0.0074462890625,-0.7427978515625,-0.763916015625,11.932373046875,-10.2691650390625,-3.76129150390625
0.0211181640625,-0.751220703125,-0.7340087890625,13.885498046875,-0.32806396484375,-7.56072998046875
0.0126953125,-0.7620849609375,-0.716552734375,7.0953369140625,9.72747802734375,-4.17327880859375
0.023193359375,-0.7613525390625,-0.7125244140625,-3.875732421875,14.56451416015625,-5.4779052734375
0.0263671875,-0.7509765625,-0.73486328125,-14.8162841796875,14.70947265625,-7.39288330078125
0.023193359375,-0.7420654296875,-0.7567138671875,-20.5078125,18.13507080078125,-7.4462890625
0.0361328125,-0.7359619140625,-0.7630615234375,-20.294189453125,20.43914794921875,-9.07135009765625
0.0443115234375,-0.73291015625,-0.7677001953125,-17.7459716796875,19.8516845703125,-9.75799560546875
0.053955078125,-0.73095703125,-0.7666015625,-14.9383544921875,21.392822265625,-7.88116455078125
0.065185546875,-0.7301025390625,-0.76513671875,-12.48931884765625,21.881103515625,-4.75311279296875
0.0806884765625,-0.7291259765625,-0.7662353515625,-10.68115234375,21.46148681640625,0.67138671875
0.07958984375,-0.728271484375,-0.7694091796875,-8.64410400390625,22.20916748046875,9.62066650390625
0.0797119140625,-0.724365234375,-0.7777099609375,-4.5166015625,16.448974609375,16.4794921875
0.0635986328125,-0.718994140625,-0.7845458984375,4.791259765625,3.96728515625,17.73834228515625
0.0181884765625,-0.7200927734375,-0.79541015625,15.2587890625,-9.48333740234375,14.495849609375
-0.0101318359375,-0.731201171875,-0.7750244140625,24.43695068359375,-13.87786865234375,4.1351318359375
-0.0196533203125,-0.74365234375,-0.7437744140625,25.18463134765625,-11.36016845703125,-13.00811767578125
-0.009765625,-0.7509765625,-0.7130126953125,12.4053955078125,2.46429443359375,-27.9388427734375
0.009521484375,-0.751708984375,-0.697265625,-12.9547119140625,24.505615234375,-38.3453369140625
0.0582275390625,-0.7586669921875,-0.71875,-38.00201416015625,34.2254638671875,-33.60748291015625
0.104248046875,-0.7437744140625,-0.76171875,-42.32025146484375,25.65765380859375,-25.054931640625
0.1224365234375,-0.713134765625,-0.793701171875,-28.83148193359375,16.70074462890625,-17.88330078125
0.1240234375,-0.6968994140625,-0.8037109375,-15.20538330078125,11.2457275390625,-11.4288330078125
0.1190185546875,-0.699462890625,-0.801513671875,-5.9051513671875,7.7667236328125,-6.62994384765625
0.1116943359375,-0.7044677734375,-0.7957763671875,1.89971923828125,7.781982421875,-0.43487548828125
0.106201171875,-0.7127685546875,-0.7755126953125,7.08770751953125,12.76397705078125,5.94329833984375
0.115478515625,-0.718505859375,-0.7647705078125,7.476806640625,14.7705078125,10.7574462890625
0.1287841796875,-0.7215576171875,-0.75927734375,5.02777099609375,17.58575439453125,17.58575439453125
0.1168212890625,-0.727783203125,-0.76611328125,2.75421142578125,23.03314208984375,26.55792236328125
0.0968017578125,-0.7318115234375,-0.7564697265625,5.340576171875,27.6336669921875,30.8685302734375
0.0909423828125,-0.7293701171875,-0.748046875,7.10296630859375,18.40972900390625,25.4364013671875
0.04833984375,-0.7249755859375,-0.77490234375,6.4849853515625,-2.61688232421875,18.08929443359375
0.0001220703125,-0.722900390625,-0.776611328125,9.91058349609375,-16.71600341796875,-1.44195556640625
0.0179443359375,-0.716064453125,-0.7598876953125,7.72857666015625,-21.42333984375,-24.383544921875
0.06298828125,-0.7325439453125,-0.7469482421875,-6.96563720703125,-18.9971923828125,-27.79388427734375
0.076416015625,-0.7216796875,-0.7779541015625,-16.448974609375,-22.7203369140625,-21.9573974609375
0.092529296875,-0.708984375,-0.790283203125,-14.862060546875,-19.073486328125,-20.8740234375
0.1016845703125,-0.70458984375,-0.802001953125,-10.3302001953125,-13.946533203125,-15.95306396484375
0.1014404296875,-0.705322265625,-0.7906494140625,-4.180908203125,-4.29534912109375,-8.6822509765625
0.0924072265625,-0.711669921875,-0.78662109375,0.8392333984375,-0.80108642578125,-3.92913818359375
0.09375,-0.7139892578125,-0.769775390625,3.3721923828125,0.57220458984375,-2.02178955078125
0.1240234375,-0.714111328125,-0.7706298828125,1.67083740234375,4.8980712890625,1.922607421875
0.1063232421875,-0.7169189453125,-0.7674560546875,-2.58636474609375,20.20263671875,16.204833984375
0.116943359375,-0.7181396484375,-0.7694091796875,-5.77545166015625,26.702880859375,23.78082275390625
0.1356201171875,-0.722412109375,-0.7740478515625,-5.66864013671875,26.16119384765625,28.167724609375
0.14892578125,-0.72998046875,-0.766845703125,0.05340576171875,27.52685546875,33.53118896484375
0.1341552734375,-0.732666015625,-0.756103515625,8.453369140625,18.91326904296875,35.45379638671875
0.1103515625,-0.7242431640625,-0.7593994140625,16.7694091796875,-5.279541015625,28.045654296875
0.065673828125,-0.7186279296875,-0.7725830078125,20.85113525390625,-31.2652587890625,16.6015625
0.0198974609375,-0.71240234375,-0.777099609375,22.28546142578125,-47.607421875,-0.4425048828125
-0.0155029296875,-0.716796875,-0.780029296875,17.4102783203125,-53.47442626953125,-16.5252685546875
-0.0245361328125,-0.7266845703125,-0.7706298828125,10.96343994140625,-44.952392578125,-28.57208251953125
-0.005615234375,-0.7303466796875,-0.7459716796875,1.60980224609375,-25.27618408203125,-37.36114501953125
0.0198974609375,-0.736083984375,-0.741943359375,-15.0604248046875,-4.913330078125,-41.87774658203125
0.06591796875,-0.7305908203125,-0.7486572265625,-32.379150390625,14.190673828125,-37.86468505859375
0.0921630859375,-0.71484375,-0.790771484375,-39.703369140625,16.83807373046875,-24.4903564453125
0.11279296875,-0.692138671875,-0.818115234375,-30.3192138671875,12.786865234375,-17.88330078125
0.144775390625,-0.6766357421875,-0.8311767578125,-16.28875732421875,7.48443603515625,-12.55035400390625
0.1246337890625,-0.679931640625,-0.8321533203125,-3.4942626953125,7.62939453125,-2.4566650390625
0.12548828125,-0.6895751953125,-0.80859375,8.81195068359375,12.51983642578125,4.33349609375
0.1278076171875,-0.7012939453125,-0.7847900390625,14.47296142578125,18.341064453125,12.94708251953125
0.1304931640625,-0.71142578125,-0.7630615234375,13.13018798828125,24.017333984375,23.01788330078125
0.110107421875,-0.7138671875,-0.7618408203125,8.0108642578125,22.2015380859375,29.91485595703125
0.095458984375,-0.708251953125,-0.784912109375,4.8828125,7.3394775390625,28.9306640625
0.0615234375,-0.7059326171875,-0.8021240234375,9.45281982421875,-9.6588134765625,21.67510986328125
0.0372314453125,-0.712158203125,-0.7960205078125,18.707275390625,-21.53778076171875,6.7596435546875
0.0220947265625,-0.7164306640625,-0.7674560546875,24.1851806640625,-25.0701904296875,-10.99395751953125
0.0445556640625,-0.711669921875,-0.732421875,13.72528076171875,-17.5933837890625,-26.6265869140625
0.0836181640625,-0.734130859375,-0.7415771484375,-13.7176513671875,-13.0157470703125,-24.200439453125
0.104248046875,-0.7177734375,-0.783203125,-22.02606201171875,-13.824462890625,-17.303466796875
0.11376953125,-0.7034912109375,-0.8011474609375,-15.38848876953125,-9.60540771484375,-13.83209228515625
0.123046875,-0.70166015625,-0.797119140625,-6.1187744140625,-5.18035888671875,-9.58251953125
0.11181640625,-0.702392578125,-0.79931640625,1.8157958984375,-5.43975830078125,-4.6844482421875
0.098388671875,-0.7098388671875,-0.7830810546875,7.6904296875,-2.09808349609375,-0.86212158203125
0.1064453125,-0.7132568359375,-0.773681640625,8.78143310546875,4.1351318359375,2.09808349609375
0.1024169921875,-0.7169189453125,-0.7640380859375,5.01251220703125,16.29638671875,8.97979736328125
0.09716796875,-0.71728515625,-0.76416015625,-1.0528564453125,24.261474609375,13.427734375
0.12646484375,-0.7138671875,-0.7630615234375,-7.3089599609375,28.717041015625,16.11328125
0.1251220703125,-0.714111328125,-0.7786865234375,-12.67242431640625,32.24945068359375,23.8494873046875
0.12451171875,-0.712158203125,-0.787841796875,-9.2315673828125,29.9530029296875,28.3050537109375
0.108642578125,-0.7015380859375,-0.796630859375,2.25067138671875,12.26043701171875,24.993896484375
0.07763671875,-0.6968994140625,-0.80322265625,12.4969482421875,-7.94219970703125,16.12091064453125
0.052490234375,-0.701904296875,-0.800048828125,19.5770263671875,-22.63641357421875,5.43975830078125
0.0352783203125,-0.715087890625,-0.7794189453125,23.651123046875,-29.93011474609375,-9.521484375
0.039306640625,-0.7049560546875,-0.755126953125,19.5159912109375,-27.252197265625,-23.61297607421875
0.0679931640625,-0.7257080078125,-0.744384765625,-1.12152099609375,-18.13507080078125,-23.956298828125
0.0919189453125,-0.7235107421875,-0.7698974609375,-13.81683349609375,-17.23480224609375,-19.32525634765625
0.1065673828125,-0.7069091796875,-0.792236328125,-12.99285888671875,-14.30511474609375,-15.472412109375
0.1124267578125,-0.702880859375,-0.7978515625,-7.5531005859375,-8.9263916015625,-12.1612548828125
0.111083984375,-0.70263671875,-0.796142578125,-1.2969970703125,-5.48553466796875,-6.9122314453125
0.1063232421875,-0.70556640625,-0.791259765625,3.7078857421875,-2.84576416015625,-3.27301025390625
0.10791015625,-0.7109375,-0.78125,5.584716796875,4.5013427734375,1.28936767578125
0.1077880859375,-0.71337890625,-0.7728271484375,3.63922119140625,15.89202880859375,8.17108154296875
0.110595703125,-0.715087890625,-0.765869140625,-0.72479248046875,24.63531494140625,13.763427734375
0.1383056640625,-0.7120361328125,-0.772216796875,-6.72149658203125,30.8837890625,20.0347900390625
0.1328125,-0.720458984375,-0.7789306640625,-8.30841064453125,38.23089599609375,29.68597412109375
0.1253662109375,-0.7158203125,-0.7757568359375,0.20599365234375,32.8369140625,30.517578125
0.103271484375,-0.705078125,-0.7816162109375,9.57489013671875,10.76507568359375,22.63641357421875
0.06787109375,-0.703857421875,-0.786865234375,13.77105712890625,-9.5672607421875,10.772705078125
0.043701171875,-0.7086181640625,-0.7900390625,14.5416259765625,-23.73504638671875,-2.3651123046875
0.0364990234375,-0.7154541015625,-0.772705078125,14.3280029296875,-29.07562255859375,-15.86151123046875
0.05908203125,-0.7132568359375,-0.7486572265625,5.30242919921875,-24.96337890625,-27.618408203125
0.0968017578125,-0.7164306640625,-0.769775390625,-11.10076904296875,-22.2930908203125,-22.89581298828125
0.099609375,-0.704345703125,-0.799072265625,-14.1143798828125,-16.357421875,-15.69366455078125
0.103759765625,-0.6982421875,-0.805908203125,-8.758544921875,-8.93402099609375,-11.3677978515625
0.1148681640625,-0.6990966796875,-0.798828125,-1.0986328125,-7.94219970703125,-9.39178466796875
0.0992431640625,-0.702880859375,-0.7933349609375,4.46319580078125,-9.3841552734375,-5.40924072265625
0.0958251953125,-0.7060546875,-0.787109375,7.904052734375,-7.720947265625,-2.9296875
0.10205078125,-0.7103271484375,-0.777099609375,7.82012939453125,2.84576416015625,1.678466796875
0.1029052734375,-0.71484375,-0.7645263671875,4.1046142578125,16.78466796875,8.97979736328125
0.124755859375,-0.7130126953125,-0.7611083984375,-2.40325927734375,24.2919921875,14.32037353515625
0.1365966796875,-0.71875,-0.780517578125,-9.11712646484375,31.05926513671875,25.3448486328125
0.12353515625,-0.720703125,-0.7786865234375,-1.708984375,32.65380859375,30.40313720703125
0.1109619140625,-0.7105712890625,-0.7669677734375,9.94110107421875,16.2811279296875,22.9644775390625
0.076416015625,-0.711181640625,-0.781494140625,11.962890625,-8.75091552734375,13.5498046875
0.045166015625,-0.7083740234375,-0.787353515625,14.09149169921875,-25.10833740234375,-1.33514404296875
0.0438232421875,-0.7127685546875,-0.779296875,13.3514404296875,-32.7911376953125,-15.0146484375
