accel_x,accel_y,accel_z,gyro_x,gyro_y,gyro_z
0.0621337890625,-0.76806640625,0.5797119140625,-2.7313232421875,0.93841552734375,-0.26702880859375
0.0621337890625,-0.7677001953125,0.57958984375,-2.7618408203125,0.93841552734375,-0.2593994140625
0.06201171875,-0.7679443359375,0.578369140625,-2.777099609375,0.93841552734375,-0.26702880859375
0.0625,-0.7679443359375,0.578125,-2.74658203125,0.93841552734375,-0.274658203125
0.061767578125,-0.7679443359375,0.5789794921875,-2.69317626953125,0.946044921875,-0.26702880859375
0.0616455078125,-0.7684326171875,0.5780029296875,-2.69317626953125,0.946044921875,-0.2593994140625
0.0614013671875,-0.768798828125,0.5772705078125,-2.72369384765625,0.93841552734375,-0.2593994140625
0.0614013671875,-0.7684326171875,0.5784912109375,-2.7313232421875,0.946044921875,-0.26702880859375
0.061279296875,-0.767822265625,0.578857421875,-2.685546875,0.9307861328125,-0.26702880859375
0.0611572265625,-0.7677001953125,0.578125,-2.66265869140625,0.9307861328125,-0.26702880859375
0.0609130859375,-0.7681884765625,0.57763671875,-2.685546875,0.93841552734375,-0.26702880859375
0.0609130859375,-0.7685546875,0.578369140625,-2.69317626953125,0.9307861328125,-0.26702880859375
0.0614013671875,-0.7681884765625,0.5792236328125,-2.685546875,0.9307861328125,-0.26702880859375
0.0615234375,-0.767578125,0.5794677734375,-2.6702880859375,0.9307861328125,-0.2593994140625
0.0615234375,-0.7677001953125,0.580322265625,-2.66265869140625,0.91552734375,-0.25177001953125
0.061767578125,-0.7681884765625,0.580078125,-2.64739990234375,0.92315673828125,-0.2593994140625
0.061767578125,-0.7686767578125,0.580322265625,-2.6397705078125,0.946044921875,-0.274658203125
0.061767578125,-0.7679443359375,0.5802001953125,-2.64739990234375,0.95367431640625,-0.26702880859375
0.0623779296875,-0.7679443359375,0.57958984375,-2.69317626953125,0.95367431640625,-0.28228759765625
0.06201171875,-0.7679443359375,0.57958984375,-2.7313232421875,0.95367431640625,-0.29754638671875
0.0625,-0.76806640625,0.578857421875,-2.69317626953125,0.9613037109375,-0.274658203125
0.0623779296875,-0.768798828125,0.5794677734375,-2.6702880859375,0.96893310546875,-0.2593994140625
0.06201171875,-0.7689208984375,0.578125,-2.685546875,0.9613037109375,-0.2593994140625
0.0618896484375,-0.7686767578125,0.5777587890625,-2.73895263671875,0.95367431640625,-0.26702880859375
0.0625,-0.7684326171875,0.5782470703125,-2.74658203125,0.9307861328125,-0.2593994140625
0.062255859375,-0.769287109375,0.578125,-2.70843505859375,0.92315673828125,-0.274658203125
0.0626220703125,-0.7696533203125,0.57861328125,-2.716064453125,0.9307861328125,-0.274658203125
0.0623779296875,-0.7696533203125,0.578369140625,-2.7313232421875,0.946044921875,-0.28228759765625
0.0621337890625,-0.7689208984375,0.5780029296875,-2.73895263671875,0.946044921875,-0.28228759765625
0.06201171875,-0.769287109375,0.5787353515625,-2.7008056640625,0.95367431640625,-0.274658203125
0.0615234375,-0.769287109375,0.578369140625,-2.66265869140625,0.9613037109375,-0.274658203125
0.0614013671875,-0.7689208984375,0.578857421875,-2.66265869140625,0.96893310546875,-0.28228759765625
0.062255859375,-0.768798828125,0.578125,-2.69317626953125,0.946044921875,-0.29754638671875
0.0625,-0.7685546875,0.57861328125,-2.69317626953125,0.946044921875,-0.26702880859375
0.0623779296875,-0.76806640625,0.579833984375,-2.64739990234375,0.96893310546875,-0.25177001953125
0.062255859375,-0.767578125,0.580322265625,-2.655029296875,0.96893310546875,-0.23651123046875
0.06201171875,-0.7679443359375,0.58056640625,-2.72369384765625,0.9613037109375,-0.2593994140625
0.061767578125,-0.7681884765625,0.5797119140625,-2.8076171875,0.9307861328125,-0.274658203125
0.0618896484375,-0.7686767578125,0.5797119140625,-2.79998779296875,0.9307861328125,-0.28228759765625
0.06201171875,-0.7685546875,0.580078125,-2.70843505859375,0.946044921875,-0.28228759765625
0.062255859375,-0.768798828125,0.579833984375,-2.69317626953125,0.9613037109375,-0.274658203125
0.0626220703125,-0.76904296875,0.5792236328125,-2.75421142578125,0.95367431640625,-0.274658203125
0.0621337890625,-0.7686767578125,0.5780029296875,-2.777099609375,0.9613037109375,-0.28228759765625
0.0626220703125,-0.768798828125,0.5771484375,-2.75421142578125,0.95367431640625,-0.28228759765625
0.0626220703125,-0.769287109375,0.577392578125,-2.716064453125,0.95367431640625,-0.2593994140625
0.0621337890625,-0.7691650390625,0.5777587890625,-2.74658203125,0.9307861328125,-0.244140625
0.06201171875,-0.7691650390625,0.57861328125,-2.8076171875,0.92315673828125,-0.23651123046875
0.0618896484375,-0.7686767578125,0.5784912109375,-2.79998779296875,0.92315673828125,-0.2593994140625
0.0616455078125,-0.769287109375,0.57861328125,-2.75421142578125,0.91552734375,-0.25177001953125
0.0623779296875,-0.7694091796875,0.578125,-2.73895263671875,0.9307861328125,-0.26702880859375
0.0623779296875,-0.7698974609375,0.5782470703125,-2.75421142578125,0.93841552734375,-0.274658203125
0.0626220703125,-0.7698974609375,0.5775146484375,-2.75421142578125,0.9307861328125,-0.28228759765625
0.0621337890625,-0.769775390625,0.5772705078125,-2.73895263671875,0.9307861328125,-0.274658203125
0.0616455078125,-0.7691650390625,0.5782470703125,-2.72369384765625,0.92315673828125,-0.274658203125
0.061279296875,-0.7689208984375,0.5792236328125,-2.7313232421875,0.92315673828125,-0.274658203125
0.0615234375,-0.76904296875,0.5797119140625,-2.72369384765625,0.9307861328125,-0.2593994140625
0.061279296875,-0.76904296875,0.579833984375,-2.72369384765625,0.93841552734375,-0.25177001953125
0.0616455078125,-0.7691650390625,0.578857421875,-2.72369384765625,0.946044921875,-0.25177001953125
0.061279296875,-0.76953125,0.5789794921875,-2.72369384765625,0.93841552734375,-0.26702880859375
0.0615234375,-0.7696533203125,0.578369140625,-2.70843505859375,0.95367431640625,-0.2593994140625
0.062255859375,-0.769287109375,0.578857421875,-2.685546875,0.95367431640625,-0.244140625
0.0628662109375,-0.76953125,0.5789794921875,-2.67791748046875,0.946044921875,-0.2593994140625
0.0626220703125,-0.7691650390625,0.578125,-2.685546875,0.93841552734375,-0.274658203125
0.0618896484375,-0.769287109375,0.57861328125,-2.685546875,0.946044921875,-0.2593994140625
0.061767578125,-0.7686767578125,0.5794677734375,-2.67791748046875,0.96893310546875,-0.26702880859375
0.06201171875,-0.7684326171875,0.5804443359375,-2.655029296875,0.9765625,-0.28228759765625
0.0621337890625,-0.7685546875,0.5806884765625,-2.6702880859375,0.946044921875,-0.274658203125
0.0616455078125,-0.7691650390625,0.581298828125,-2.7618408203125,0.9307861328125,-0.2899169921875
0.0621337890625,-0.7694091796875,0.5802001953125,-2.899169921875,0.89263916015625,-0.30517578125
0.0616455078125,-0.7696533203125,0.5802001953125,-2.838134765625,0.91552734375,-0.30517578125
0.06201171875,-0.7686767578125,0.5814208984375,-2.64739990234375,0.96893310546875,-0.2899169921875
0.06103515625,-0.7679443359375,0.5831298828125,-2.92205810546875,0.92315673828125,-0.34332275390625
0.062255859375,-0.76904296875,0.5799560546875,-3.99017333984375,0.64849853515625,-0.51116943359375
0.0634765625,-0.771484375,0.5732421875,-4.37164306640625,0.51116943359375,-0.52642822265625
0.0634765625,-0.771728515625,0.572998046875,-3.143310546875,0.823974609375,-0.3509521484375
0.0625,-0.77001953125,0.5799560546875,-1.85394287109375,1.1444091796875,-0.1678466796875
0.062255859375,-0.76953125,0.580810546875,-2.14385986328125,1.07574462890625,-0.1983642578125
0.0628662109375,-0.7701416015625,0.5777587890625,-3.05938720703125,0.84686279296875,-0.32806396484375
0.063232421875,-0.7703857421875,0.5760498046875,-3.3416748046875,0.77056884765625,-0.3814697265625
0.0635986328125,-0.7713623046875,0.57470703125,-2.86865234375,0.8697509765625,-0.30517578125
0.0633544921875,-0.771484375,0.5770263671875,-2.11334228515625,1.068115234375,-0.20599365234375
0.0618896484375,-0.7698974609375,0.580078125,-2.11334228515625,1.0986328125,-0.1983642578125
0.0625,-0.7703857421875,0.5789794921875,-2.83050537109375,0.93841552734375,-0.30517578125
0.062744140625,-0.770263671875,0.57666015625,-3.0059814453125,0.9002685546875,-0.3204345703125
0.0618896484375,-0.76953125,0.5794677734375,-2.64739990234375,0.9765625,-0.28228759765625
0.061767578125,-0.7686767578125,0.5810546875,-2.8076171875,0.9765625,-0.29754638671875
0.0618896484375,-0.76904296875,0.57861328125,-3.30352783203125,0.86212158203125,-0.35858154296875
0.0616455078125,-0.769287109375,0.5777587890625,-3.326416015625,0.84686279296875,-0.37384033203125
0.0614013671875,-0.7689208984375,0.5784912109375,-3.1280517578125,0.87738037109375,-0.37384033203125
0.061767578125,-0.7689208984375,0.5792236328125,-3.15093994140625,0.89263916015625,-0.37384033203125
0.0618896484375,-0.76904296875,0.5777587890625,-3.42559814453125,0.8392333984375,-0.38909912109375
0.0626220703125,-0.769775390625,0.5755615234375,-3.4332275390625,0.8392333984375,-0.37384033203125
0.0628662109375,-0.769775390625,0.5755615234375,-3.01361083984375,0.93841552734375,-0.3204345703125
0.062255859375,-0.769287109375,0.576904296875,-2.69317626953125,0.9918212890625,-0.274658203125
0.0625,-0.7694091796875,0.5787353515625,-2.78472900390625,0.96893310546875,-0.30517578125
0.0623779296875,-0.76953125,0.57666015625,-3.143310546875,0.8544921875,-0.32806396484375
0.0626220703125,-0.7701416015625,0.574951171875,-3.15093994140625,0.83160400390625,-0.3509521484375
0.061279296875,-0.771484375,0.572998046875,-2.76947021484375,0.90789794921875,-0.28228759765625
0.0625,-0.769775390625,0.5791015625,-2.31170654296875,1.12152099609375,-0.244140625
0.061767578125,-0.769287109375,0.5821533203125,-2.655029296875,1.04522705078125,-0.213623046875
0.061767578125,-0.7705078125,0.577880859375,-3.41033935546875,0.83160400390625,-0.30517578125
0.062744140625,-0.771484375,0.5750732421875,-3.448486328125,0.80108642578125,-0.34332275390625
0.063232421875,-0.7711181640625,0.5751953125,-2.777099609375,0.95367431640625,-0.2593994140625
0.0635986328125,-0.7691650390625,0.578857421875,-2.43377685546875,1.07574462890625,-0.244140625
0.0635986328125,-0.7698974609375,0.5787353515625,-2.8533935546875,0.9765625,-0.23651123046875
0.0631103515625,-0.7706298828125,0.5771484375,-3.11279296875,0.8697509765625,-0.31280517578125
0.0625,-0.770263671875,0.578857421875,-2.95257568359375,0.885009765625,-0.31280517578125
0.06201171875,-0.76904296875,0.5831298828125,-3.21197509765625,0.87738037109375,-0.37384033203125
0.0628662109375,-0.7698974609375,0.579345703125,-4.241943359375,0.640869140625,-0.5035400390625
0.0672607421875,-0.7705078125,0.5709228515625,-4.6539306640625,0.5340576171875,-0.518798828125
0.0662841796875,-0.77197265625,0.567626953125,-2.76947021484375,1.10626220703125,0.030517578125
0.0594482421875,-0.7711181640625,0.5762939453125,0.457763671875,1.25885009765625,0.8697509765625
0.05908203125,-0.765380859375,0.5931396484375,0.86212158203125,1.47247314453125,0.67138671875
0.0595703125,-0.7672119140625,0.58642578125,-2.4261474609375,0.77056884765625,0.14495849609375
0.0631103515625,-0.7706298828125,0.572509765625,-4.46319580078125,0.34332275390625,-0.244140625
0.0628662109375,-0.771240234375,0.572265625,-3.1890869140625,0.67138671875,-0.11444091796875
0.0609130859375,-0.76806640625,0.5814208984375,-1.38092041015625,1.190185546875,0.06103515625
0.0595703125,-0.766845703125,0.585693359375,-1.8463134765625,1.10626220703125,-0.0457763671875
0.060791015625,-0.7685546875,0.5804443359375,-3.448486328125,0.70953369140625,-0.274658203125
0.062744140625,-0.7698974609375,0.575439453125,-3.814697265625,0.58746337890625,-0.38909912109375
0.0626220703125,-0.7705078125,0.5760498046875,-3.16619873046875,0.762939453125,-0.3662109375
0.062744140625,-0.76953125,0.57861328125,-2.8839111328125,0.81634521484375,-0.38909912109375
0.0631103515625,-0.7701416015625,0.5782470703125,-3.265380859375,0.81634521484375,-0.54931640625
0.0631103515625,-0.7705078125,0.5770263671875,-3.570556640625,0.8087158203125,-0.6256103515625
0.062744140625,-0.773681640625,0.57080078125,-3.27301025390625,0.79345703125,-0.46539306640625
0.061767578125,-0.7734375,0.573974609375,-2.00653076171875,1.13677978515625,-0.32806396484375
0.0615234375,-0.771728515625,0.580322265625,-1.40380859375,1.28936767578125,-0.1983642578125
0.0615234375,-0.771728515625,0.5804443359375,-2.22015380859375,1.1138916015625,-0.2899169921875
0.062255859375,-0.7720947265625,0.57763671875,-3.22723388671875,0.8544921875,-0.396728515625
0.0623779296875,-0.7718505859375,0.57763671875,-3.44085693359375,0.80108642578125,-0.43487548828125
0.062744140625,-0.771484375,0.5772705078125,-3.37982177734375,0.80108642578125,-0.40435791015625
0.0628662109375,-0.771240234375,0.57568359375,-3.173828125,0.84686279296875,-0.3662109375
0.062744140625,-0.770263671875,0.5765380859375,-2.777099609375,0.946044921875,-0.28228759765625
0.0623779296875,-0.7691650390625,0.5782470703125,-2.50244140625,1.0223388671875,-0.22125244140625
0.0621337890625,-0.768310546875,0.5794677734375,-2.593994140625,1.007080078125,-0.213623046875
0.0640869140625,-0.77099609375,0.568603515625,-2.70843505859375,0.95367431640625,-0.1068115234375
0.067138671875,-0.7701416015625,0.569091796875,-0.396728515625,1.21307373046875,0.42724609375
0.0609130859375,-0.76611328125,0.585693359375,2.28118896484375,1.5869140625,1.07574462890625
0.059326171875,-0.7630615234375,0.5968017578125,0.89263916015625,1.3885498046875,0.579833984375
0.0611572265625,-0.7674560546875,0.584228515625,-3.08990478515625,0.579833984375,-0.06103515625
0.06298828125,-0.7705078125,0.5721435546875,-4.38690185546875,0.37384033203125,-0.28228759765625
0.0616455078125,-0.7701416015625,0.5748291015625,-2.89154052734375,0.80108642578125,-0.152587890625
0.06103515625,-0.769287109375,0.5806884765625,-2.05230712890625,1.04522705078125,-0.11444091796875
0.060791015625,-0.7698974609375,0.580810546875,-2.7618408203125,0.89263916015625,-0.2288818359375
0.061279296875,-0.7703857421875,0.577880859375,-3.7078857421875,0.64849853515625,-0.396728515625
0.06298828125,-0.771728515625,0.575439453125,-4.0130615234375,0.55694580078125,-0.48828125
0.0638427734375,-0.7723388671875,0.5745849609375,-3.84521484375,0.5950927734375,-0.48065185546875
0.0640869140625,-0.772216796875,0.5748291015625,-3.509521484375,0.67901611328125,-0.45013427734375
0.0634765625,-0.7718505859375,0.575439453125,-3.12042236328125,0.7781982421875,-0.38909912109375
0.063232421875,-0.7718505859375,0.577392578125,-2.79998779296875,0.89263916015625,-0.35858154296875
0.06298828125,-0.7716064453125,0.5771484375,-2.8533935546875,0.87738037109375,-0.3509521484375
0.0625,-0.7705078125,0.5780029296875,-3.0517578125,0.83160400390625,-0.40435791015625
0.06201171875,-0.770751953125,0.577880859375,-3.34930419921875,0.732421875,-0.43487548828125
0.0618896484375,-0.7701416015625,0.578857421875,-3.5400390625,0.72479248046875,-0.49591064453125
0.06201171875,-0.7694091796875,0.5767822265625,-3.62396240234375,0.6866455078125,-0.48065185546875
0.0618896484375,-0.7686767578125,0.5784912109375,-3.4027099609375,0.7476806640625,-0.4425048828125
0.0621337890625,-0.767822265625,0.5792236328125,-3.0364990234375,0.83160400390625,-0.3662109375
0.0628662109375,-0.76708984375,0.5797119140625,-2.7923583984375,0.9002685546875,-0.30517578125
0.0626220703125,-0.77099609375,0.566650390625,-2.00653076171875,0.9765625,0.030517578125
0.061279296875,-0.7666015625,0.5784912109375,1.068115234375,1.80816650390625,0.3204345703125
0.0577392578125,-0.7626953125,0.5933837890625,1.708984375,1.94549560546875,0.42724609375
0.0587158203125,-0.7640380859375,0.5880126953125,-1.30462646484375,1.28173828125,-0.030517578125
0.0616455078125,-0.7685546875,0.57568359375,-3.4942626953125,0.75531005859375,-0.3204345703125
0.0618896484375,-0.769775390625,0.5745849609375,-2.6702880859375,0.98419189453125,-0.22125244140625
0.060791015625,-0.7681884765625,0.583251953125,-1.68609619140625,1.27410888671875,-0.12969970703125
0.0616455078125,-0.768798828125,0.5831298828125,-2.51007080078125,1.0528564453125,-0.23651123046875
0.0631103515625,-0.77001953125,0.5791015625,-3.59344482421875,0.7781982421875,-0.40435791015625
0.0631103515625,-0.771728515625,0.5748291015625,-3.9520263671875,0.69427490234375,-0.4425048828125
0.06298828125,-0.7725830078125,0.5732421875,-3.57818603515625,0.75531005859375,-0.40435791015625
0.0623779296875,-0.7728271484375,0.57470703125,-2.99072265625,0.89263916015625,-0.32806396484375
0.062255859375,-0.7720947265625,0.5767822265625,-2.7313232421875,0.95367431640625,-0.31280517578125
0.0623779296875,-0.7724609375,0.57666015625,-2.98309326171875,0.885009765625,-0.35858154296875
0.0628662109375,-0.7723388671875,0.5740966796875,-3.2196044921875,0.823974609375,-0.3662109375
0.0626220703125,-0.7706298828125,0.5758056640625,-3.01361083984375,0.885009765625,-0.335693359375
0.062255859375,-0.77001953125,0.5775146484375,-2.83050537109375,0.92315673828125,-0.29754638671875
0.061767578125,-0.769287109375,0.580078125,-2.9449462890625,0.90789794921875,-0.3204345703125
0.06103515625,-0.768798828125,0.579345703125,-3.35693359375,0.8087158203125,-0.38909912109375
0.061279296875,-0.7685546875,0.57763671875,-3.4637451171875,0.78582763671875,-0.4119873046875
0.0615234375,-0.767578125,0.57861328125,-3.08990478515625,0.8544921875,-0.335693359375
0.0604248046875,-0.7711181640625,0.5682373046875,-2.38037109375,1.02996826171875,0.0
0.062255859375,-0.767578125,0.5762939453125,0.4730224609375,1.6326904296875,0.38909912109375
0.05908203125,-0.7630615234375,0.5921630859375,2.044677734375,1.96075439453125,0.640869140625
0.059814453125,-0.7630615234375,0.5933837890625,-0.20599365234375,1.46484375,0.274658203125
0.061279296875,-0.7672119140625,0.5792236328125,-2.9296875,0.823974609375,-0.091552734375
0.0626220703125,-0.767822265625,0.5753173828125,-2.5634765625,0.9765625,-0.0762939453125
0.0606689453125,-0.7657470703125,0.5841064453125,-1.31988525390625,1.31988525390625,0.06866455078125
0.0594482421875,-0.765869140625,0.58740234375,-2.1209716796875,1.129150390625,-0.09918212890625
0.060791015625,-0.7685546875,0.580322265625,-4.1046142578125,0.64849853515625,-0.41961669921875
0.0634765625,-0.7708740234375,0.576416015625,-4.8828125,0.4425048828125,-0.58746337890625
0.063720703125,-0.7716064453125,0.5748291015625,-4.364013671875,0.5950927734375,-0.5340576171875
0.0633544921875,-0.7716064453125,0.575439453125,-3.66973876953125,0.77056884765625,-0.45013427734375
0.0631103515625,-0.771484375,0.5777587890625,-3.3111572265625,0.84686279296875,-0.42724609375
0.063232421875,-0.7718505859375,0.5758056640625,-3.47137451171875,0.78582763671875,-0.42724609375
0.0635986328125,-0.7716064453125,0.5745849609375,-3.53240966796875,0.78582763671875,-0.45013427734375
0.0631103515625,-0.771484375,0.5748291015625,-3.33404541015625,0.8087158203125,-0.42724609375
0.0628662109375,-0.7706298828125,0.577392578125,-3.0670166015625,0.86212158203125,-0.396728515625
0.062744140625,-0.7698974609375,0.57958984375,-3.12042236328125,0.84686279296875,-0.38909912109375
0.0625,-0.769287109375,0.5797119140625,-3.33404541015625,0.8087158203125,-0.4119873046875
0.06298828125,-0.76904296875,0.5767822265625,-3.3416748046875,0.8087158203125,-0.3814697265625
0.0625,-0.7698974609375,0.5731201171875,-2.38037109375,1.03759765625,-0.18310546875
0.06103515625,-0.7666015625,0.5816650390625,-0.54168701171875,1.495361328125,0.0457763671875
0.0589599609375,-0.764404296875,0.5897216796875,-0.37384033203125,1.56402587890625,0.09918212890625
0.059814453125,-0.765380859375,0.5875244140625,-1.89971923828125,1.19781494140625,-0.09918212890625
0.0615234375,-0.7667236328125,0.5811767578125,-2.84576416015625,0.96893310546875,-0.23651123046875
0.0609130859375,-0.7659912109375,0.57958984375,-2.35748291015625,1.10626220703125,-0.18310546875
0.060791015625,-0.7657470703125,0.5830078125,-1.70135498046875,1.24359130859375,-0.09918212890625
0.060546875,-0.76708984375,0.5845947265625,-1.94549560546875,1.18255615234375,-0.12969970703125
0.061279296875,-0.7681884765625,0.5828857421875,-2.69317626953125,0.9918212890625,-0.25177001953125
0.0616455078125,-0.7691650390625,0.5809326171875,-3.34930419921875,0.83160400390625,-0.38909912109375
0.062255859375,-0.770751953125,0.578369140625,-3.94439697265625,0.67138671875,-0.48828125
0.063232421875,-0.7724609375,0.574462890625,-4.1961669921875,0.60272216796875,-0.5340576171875
0.0635986328125,-0.7738037109375,0.5728759765625,-3.936767578125,0.63323974609375,-0.48828125
0.0635986328125,-0.7735595703125,0.573974609375,-3.34930419921875,0.77056884765625,-0.4119873046875
0.0631103515625,-0.772705078125,0.576416015625,-3.143310546875,0.823974609375,-0.37384033203125
0.06298828125,-0.7725830078125,0.5765380859375,-3.21197509765625,0.8087158203125,-0.3662109375
0.0634765625,-0.771484375,0.576171875,-3.1280517578125,0.8392333984375,-0.35858154296875
0.06298828125,-0.770263671875,0.57861328125,-2.9296875,0.87738037109375,-0.335693359375
0.0623779296875,-0.7698974609375,0.5802001953125,-2.9449462890625,0.8697509765625,-0.335693359375
0.0618896484375,-0.7685546875,0.579833984375,-3.173828125,0.83160400390625,-0.3814697265625
0.0625,-0.7691650390625,0.578125,-3.1890869140625,0.823974609375,-0.37384033203125
0.0625,-0.7684326171875,0.5787353515625,-2.4566650390625,1.03759765625,-0.2593994140625
0.0614013671875,-0.7666015625,0.58349609375,-1.3885498046875,1.28936767578125,-0.0762939453125
0.0599365234375,-0.7645263671875,0.588623046875,-1.13677978515625,1.373291015625,-0.030517578125
0.060302734375,-0.7652587890625,0.586669921875,-2.02178955078125,1.15203857421875,-0.1373291015625
0.0604248046875,-0.7669677734375,0.5821533203125,-2.5634765625,1.03759765625,-0.20599365234375
0.06103515625,-0.766845703125,0.5821533203125,-2.14385986328125,1.1138916015625,-0.152587890625
0.0614013671875,-0.7664794921875,0.5833740234375,-1.71661376953125,1.220703125,-0.08392333984375
0.0616455078125,-0.7669677734375,0.5816650390625,-1.9378662109375,1.13677978515625,-0.09918212890625
0.0626220703125,-0.767822265625,0.579833984375,-2.227783203125,1.06048583984375,-0.1678466796875
0.0623779296875,-0.7686767578125,0.579345703125,-2.20489501953125,1.03759765625,-0.1373291015625
0.0623779296875,-0.76904296875,0.580078125,-2.3040771484375,1.0223388671875,-0.1678466796875
0.0626220703125,-0.7691650390625,0.5797119140625,-3.0364990234375,0.8544921875,-0.31280517578125
0.0631103515625,-0.771728515625,0.5760498046875,-3.875732421875,0.640869140625,-0.45013427734375
0.0635986328125,-0.772705078125,0.5726318359375,-3.88336181640625,0.64849853515625,-0.48065185546875
0.0635986328125,-0.772705078125,0.5738525390625,-3.204345703125,0.823974609375,-0.38909912109375
0.0625,-0.7720947265625,0.5760498046875,-2.777099609375,0.93841552734375,-0.3204345703125
0.062255859375,-0.7718505859375,0.57666015625,-2.9754638671875,0.9002685546875,-0.3509521484375
0.06298828125,-0.7723388671875,0.5751953125,-3.10516357421875,0.8544921875,-0.3509521484375
0.06298828125,-0.7711181640625,0.5758056640625,-2.75421142578125,0.9307861328125,-0.28228759765625
0.0623779296875,-0.7701416015625,0.577880859375,-2.35748291015625,1.03759765625,-0.213623046875
0.062255859375,-0.768798828125,0.5804443359375,-2.3040771484375,1.068115234375,-0.18310546875
0.06201171875,-0.7679443359375,0.5799560546875,-2.47955322265625,1.02996826171875,-0.213623046875
0.06201171875,-0.7672119140625,0.5819091796875,-2.54058837890625,1.04522705078125,-0.22125244140625
0.062255859375,-0.765869140625,0.5811767578125,-2.55584716796875,1.02996826171875,-0.213623046875
0.0618896484375,-0.766357421875,0.58056640625,-2.34222412109375,1.0833740234375,-0.17547607421875
0.0616455078125,-0.76611328125,0.582275390625,-2.08282470703125,1.18255615234375,-0.11444091796875
0.063232421875,-0.7685546875,0.580810546875,-2.1820068359375,1.10626220703125,-0.06866455078125
0.0626220703125,-0.7664794921875,0.577392578125,-2.08282470703125,0.8392333984375,-0.06866455078125
0.0601806640625,-0.7664794921875,0.58251953125,-1.40380859375,0.9613037109375,0.1220703125
0.0595703125,-0.765380859375,0.5841064453125,-1.8768310546875,0.885009765625,0.030517578125
0.0604248046875,-0.767333984375,0.5792236328125,-3.16619873046875,0.67138671875,-0.213623046875
0.060791015625,-0.7696533203125,0.574951171875,-3.63922119140625,0.61798095703125,-0.31280517578125
0.061279296875,-0.77001953125,0.573486328125,-2.9449462890625,0.78582763671875,-0.1983642578125
0.060546875,-0.769287109375,0.5787353515625,-2.1209716796875,0.99945068359375,-0.14495849609375
0.0609130859375,-0.7686767578125,0.581298828125,-2.44140625,0.9765625,-0.1983642578125
0.0616455078125,-0.7696533203125,0.57763671875,-3.47137451171875,0.74005126953125,-0.3509521484375
0.06298828125,-0.770751953125,0.57275390625,-3.65447998046875,0.67901611328125,-0.38909912109375
0.0625,-0.7701416015625,0.5755615234375,-2.655029296875,0.92315673828125,-0.26702880859375
0.061767578125,-0.7681884765625,0.58154296875,-2.18963623046875,1.04522705078125,-0.22125244140625
0.061767578125,-0.7679443359375,0.5804443359375,-2.960205078125,0.86212158203125,-0.32806396484375
0.061767578125,-0.76904296875,0.576416015625,-3.47137451171875,0.732421875,-0.396728515625
0.0621337890625,-0.7684326171875,0.5777587890625,-2.899169921875,0.8544921875,-0.32806396484375
0.0614013671875,-0.7677001953125,0.58203125,-2.32696533203125,0.98419189453125,-0.26702880859375
0.0615234375,-0.7677001953125,0.583251953125,-2.54058837890625,0.95367431640625,-0.29754638671875
0.061767578125,-0.7689208984375,0.5770263671875,-2.84576416015625,0.86212158203125,-0.2593994140625
0.0614013671875,-0.769775390625,0.577392578125,-1.9683837890625,1.07574462890625,-0.1373291015625
0.0596923828125,-0.766845703125,0.584716796875,-1.10626220703125,1.28936767578125,-0.03814697265625
0.059814453125,-0.7662353515625,0.585205078125,-2.11334228515625,1.09100341796875,-0.152587890625
0.06103515625,-0.7686767578125,0.57763671875,-3.2501220703125,0.823974609375,-0.30517578125
0.06103515625,-0.7681884765625,0.578369140625,-2.7313232421875,0.93841552734375,-0.2593994140625
0.0601806640625,-0.7679443359375,0.5841064453125,-2.14385986328125,1.0528564453125,-0.20599365234375
0.0614013671875,-0.7689208984375,0.5838623046875,-2.76947021484375,0.90789794921875,-0.30517578125
0.0611572265625,-0.770263671875,0.580322265625,-3.5400390625,0.732421875,-0.4119873046875
0.0621337890625,-0.7703857421875,0.57958984375,-3.6468505859375,0.72479248046875,-0.457763671875
0.0633544921875,-0.77001953125,0.578125,-3.39508056640625,0.77056884765625,-0.4119873046875
0.0625,-0.7701416015625,0.5777587890625,-2.87628173828125,0.89263916015625,-0.3204345703125
0.06201171875,-0.7689208984375,0.5814208984375,-2.4871826171875,0.9918212890625,-0.274658203125
0.0616455078125,-0.7684326171875,0.581787109375,-2.69317626953125,0.93841552734375,-0.30517578125
0.0623779296875,-0.767578125,0.5810546875,-3.01361083984375,0.885009765625,-0.3662109375
0.0623779296875,-0.7674560546875,0.5780029296875,-3.08990478515625,0.83160400390625,-0.32806396484375
0.0615234375,-0.7677001953125,0.5794677734375,-2.5634765625,0.96893310546875,-0.274658203125
0.0609130859375,-0.76708984375,0.5828857421875,-2.0751953125,1.07574462890625,-0.213623046875
0.06005859375,-0.76708984375,0.583740234375,-2.3193359375,1.03759765625,-0.23651123046875
0.060546875,-0.7686767578125,0.5821533203125,-2.8839111328125,0.90789794921875,-0.3204345703125
0.0621337890625,-0.7691650390625,0.58056640625,-3.01361083984375,0.885009765625,-0.3204345703125
0.0626220703125,-0.7686767578125,0.5811767578125,-2.75421142578125,0.93841552734375,-0.2593994140625
0.0611572265625,-0.7685546875,0.5799560546875,-2.593994140625,0.98419189453125,-0.244140625
0.061767578125,-0.7681884765625,0.5809326171875,-2.63214111328125,0.98419189453125,-0.2593994140625
0.06201171875,-0.7685546875,0.580322265625,-2.8228759765625,0.9307861328125,-0.2899169921875
0.0625,-0.7691650390625,0.578857421875,-2.92205810546875,0.9002685546875,-0.28228759765625
0.062744140625,-0.769287109375,0.5787353515625,-2.8228759765625,0.9307861328125,-0.26702880859375
0.062744140625,-0.7691650390625,0.5789794921875,-2.64739990234375,0.98419189453125,-0.2288818359375
0.062744140625,-0.7689208984375,0.579345703125,-2.6397705078125,0.9765625,-0.2288818359375
0.062744140625,-0.7689208984375,0.57861328125,-2.8076171875,0.95367431640625,-0.2593994140625
0.062744140625,-0.768798828125,0.5787353515625,-2.838134765625,0.93841552734375,-0.28228759765625
0.0618896484375,-0.76953125,0.578857421875,-2.69317626953125,0.9613037109375,-0.26702880859375
0.06103515625,-0.7686767578125,0.580078125,-2.61688232421875,0.9613037109375,-0.244140625
0.060791015625,-0.7685546875,0.58056640625,-2.655029296875,0.946044921875,-0.25177001953125
0.060546875,-0.76806640625,0.5811767578125,-2.685546875,0.946044921875,-0.25177001953125
0.06103515625,-0.768310546875,0.5809326171875,-2.6397705078125,0.9613037109375,-0.2593994140625
0.0611572265625,-0.767578125,0.58154296875,-2.62451171875,0.96893310546875,-0.25177001953125
0.061279296875,-0.767333984375,0.581787109375,-2.685546875,0.95367431640625,-0.2593994140625
0.0615234375,-0.76708984375,0.5809326171875,-2.777099609375,0.946044921875,-0.274658203125
0.0614013671875,-0.767333984375,0.5802001953125,-2.8076171875,0.93841552734375,-0.29754638671875
0.0618896484375,-0.7677001953125,0.580322265625,-2.7923583984375,0.95367431640625,-0.28228759765625
0.061279296875,-0.7677001953125,0.5804443359375,-2.7618408203125,0.946044921875,-0.26702880859375
0.0616455078125,-0.768798828125,0.5797119140625,-2.7618408203125,0.946044921875,-0.26702880859375
0.0616455078125,-0.7694091796875,0.5782470703125,-2.777099609375,0.93841552734375,-0.26702880859375
0.0615234375,-0.770263671875,0.57763671875,-2.76947021484375,0.93841552734375,-0.274658203125
0.0616455078125,-0.7705078125,0.576904296875,-2.75421142578125,0.946044921875,-0.26702880859375
0.061767578125,-0.7706298828125,0.5770263671875,-2.73895263671875,0.9613037109375,-0.2593994140625
0.061767578125,-0.7703857421875,0.5767822265625,-2.7313232421875,0.96893310546875,-0.23651123046875
0.061767578125,-0.770751953125,0.5775146484375,-2.72369384765625,0.9613037109375,-0.22125244140625
0.0616455078125,-0.770263671875,0.5771484375,-2.72369384765625,0.95367431640625,-0.2288818359375
0.0616455078125,-0.770751953125,0.577392578125,-2.7008056640625,0.95367431640625,-0.23651123046875
0.0618896484375,-0.7701416015625,0.577880859375,-2.66265869140625,0.95367431640625,-0.2593994140625
0.061767578125,-0.76953125,0.5789794921875,-2.66265869140625,0.95367431640625,-0.274658203125
0.0616455078125,-0.7685546875,0.5794677734375,-2.6702880859375,0.95367431640625,-0.28228759765625
0.061279296875,-0.76806640625,0.5802001953125,-2.64739990234375,0.95367431640625,-0.274658203125
0.0615234375,-0.7679443359375,0.580810546875,-2.61688232421875,0.946044921875,-0.28228759765625
0.06103515625,-0.7672119140625,0.5810546875,-2.63214111328125,0.93841552734375,-0.2899169921875
0.0615234375,-0.7659912109375,0.5809326171875,-2.685546875,0.92315673828125,-0.29754638671875
0.061279296875,-0.7664794921875,0.5806884765625,-2.74658203125,0.9002685546875,-0.2899169921875
0.061767578125,-0.7664794921875,0.580810546875,-2.75421142578125,0.9002685546875,-0.29754638671875
0.0623779296875,-0.7669677734375,0.580322265625,-2.75421142578125,0.90789794921875,-0.30517578125
0.0618896484375,-0.767578125,0.5787353515625,-2.7923583984375,0.89263916015625,-0.2899169921875
0.06201171875,-0.767578125,0.5802001953125,-2.593994140625,0.91552734375,-0.31280517578125
0.06103515625,-0.7681884765625,0.5810546875,-2.76947021484375,0.90789794921875,-0.31280517578125
0.0618896484375,-0.7689208984375,0.5804443359375,-3.2806396484375,0.8087158203125,-0.38909912109375
0.0616455078125,-0.770751953125,0.578125,-3.54766845703125,0.7171630859375,-0.4119873046875
0.0623779296875,-0.7718505859375,0.5755615234375,-3.4027099609375,0.92315673828125,-0.48828125
0.064453125,-0.77197265625,0.5745849609375,-2.7923583984375,0.518798828125,-0.06103515625
0.0623779296875,-0.771240234375,0.578857421875,-2.25830078125,0.701904296875,0.1678466796875
0.0631103515625,-0.76953125,0.58203125,-2.716064453125,0.7171630859375,-0.09918212890625
0.0643310546875,-0.7705078125,0.578857421875,-4.09698486328125,0.52642822265625,-0.30517578125
0.0648193359375,-0.77099609375,0.57470703125,-4.38690185546875,0.48065185546875,-0.38909912109375
0.067138671875,-0.7713623046875,0.5711669921875,-3.50189208984375,0.8392333984375,-0.19073486328125
0.0621337890625,-0.7718505859375,0.5740966796875,-1.71661376953125,1.41143798828125,0.43487548828125
0.0594482421875,-0.7667236328125,0.58740234375,-0.274658203125,0.87738037109375,0.6103515625
0.0570068359375,-0.7655029296875,0.5924072265625,-1.94549560546875,0.69427490234375,0.20599365234375
0.059326171875,-0.7657470703125,0.588623046875,-4.9896240234375,0.213623046875,-0.457763671875
0.0601806640625,-0.7689208984375,0.578369140625,-7.13348388671875,-0.1983642578125,-0.83160400390625
0.062255859375,-0.7698974609375,0.571533203125,-7.0953369140625,0.17547607421875,-1.22833251953125
0.06201171875,-0.771240234375,0.5706787109375,-5.25665283203125,0.57220458984375,-0.96893310546875
0.060546875,-0.7684326171875,0.5804443359375,-3.4942626953125,1.068115234375,-0.7171630859375
0.060546875,-0.7674560546875,0.5872802734375,-4.1351318359375,0.87738037109375,-0.78582763671875
0.062744140625,-0.7706298828125,0.57666015625,-6.011962890625,0.23651123046875,-0.92315673828125
0.0640869140625,-0.77392578125,0.5653076171875,-5.8135986328125,0.20599365234375,-0.8087158203125
0.06494140625,-0.7730712890625,0.5701904296875,-3.19671630859375,0.93841552734375,-0.4425048828125
0.0625,-0.7720947265625,0.5762939453125,-1.10626220703125,1.42669677734375,-0.0152587890625
0.0615234375,-0.7691650390625,0.5853271484375,-1.07574462890625,1.46484375,-0.0762939453125
0.065185546875,-0.769287109375,0.579833984375,-3.3416748046875,1.07574462890625,-0.274658203125
0.069091796875,-0.7730712890625,0.566650390625,-4.26483154296875,0.5950927734375,0.0
0.064208984375,-0.7752685546875,0.56787109375,-2.1514892578125,1.01470947265625,0.335693359375
0.0643310546875,-0.772216796875,0.576416015625,0.12969970703125,1.42669677734375,0.2288818359375
0.060791015625,-0.76904296875,0.5865478515625,0.31280517578125,1.54876708984375,0.19073486328125
0.060546875,-0.7684326171875,0.5875244140625,-1.93023681640625,1.0528564453125,-0.19073486328125
0.0614013671875,-0.76953125,0.5819091796875,-4.8980712890625,0.38909912109375,-0.6561279296875
0.059814453125,-0.7740478515625,0.568115234375,-6.439208984375,0.030517578125,-0.79345703125
0.0703125,-0.7742919921875,0.5565185546875,-4.67681884765625,0.3509521484375,-0.3662109375
0.062744140625,-0.773193359375,0.566162109375,0.091552734375,1.5106201171875,0.8392333984375
0.0589599609375,-0.766357421875,0.5894775390625,2.86102294921875,2.14385986328125,0.22125244140625
0.0584716796875,-0.7645263671875,0.5970458984375,-0.19073486328125,1.74713134765625,-0.54931640625
0.0623779296875,-0.7672119140625,0.582275390625,-4.974365234375,0.518798828125,-1.01470947265625
0.065185546875,-0.770751953125,0.56982421875,-6.44683837890625,0.29754638671875,-1.0986328125
0.0650634765625,-0.7724609375,0.5682373046875,-4.32586669921875,0.81634521484375,-0.74005126953125
0.06396484375,-0.7705078125,0.5760498046875,-1.7547607421875,1.40380859375,-0.31280517578125
0.0616455078125,-0.769287109375,0.5836181640625,-1.27410888671875,1.47247314453125,-0.19073486328125
0.0615234375,-0.769775390625,0.58203125,-2.7923583984375,1.07574462890625,-0.3814697265625
0.0631103515625,-0.77197265625,0.5748291015625,-4.1351318359375,0.66375732421875,-0.54168701171875
0.064453125,-0.773681640625,0.569580078125,-3.80706787109375,0.70953369140625,-0.45013427734375
0.0643310546875,-0.7724609375,0.5743408203125,-2.3040771484375,1.09100341796875,-0.2288818359375
0.062744140625,-0.770751953125,0.5810546875,-1.62506103515625,1.25885009765625,-0.14495849609375
0.064208984375,-0.770751953125,0.5814208984375,-2.74658203125,1.007080078125,-0.3204345703125
0.0626220703125,-0.7752685546875,0.56787109375,-3.570556640625,0.7781982421875,-0.17547607421875
0.060546875,-0.775634765625,0.5634765625,-1.15966796875,0.67138671875,0.4119873046875
0.0621337890625,-0.7703857421875,0.578857421875,2.01416015625,1.31988525390625,0.60272216796875
0.0599365234375,-0.7667236328125,0.5909423828125,2.15911865234375,1.53350830078125,0.2593994140625
0.064453125,-0.7657470703125,0.5863037109375,-0.63323974609375,1.15966796875,-0.244140625
0.06640625,-0.77001953125,0.57470703125,-2.17437744140625,1.15203857421875,0.2899169921875
0.0611572265625,-0.7677001953125,0.581298828125,-0.96893310546875,1.2664794921875,0.579833984375
0.059814453125,-0.7652587890625,0.590087890625,-1.1138916015625,1.068115234375,0.12969970703125
0.058837890625,-0.7667236328125,0.5877685546875,-3.63922119140625,0.8544921875,-0.41961669921875
0.063232421875,-0.7694091796875,0.5755615234375,-5.5694580078125,0.31280517578125,-0.63323974609375
0.060791015625,-0.7718505859375,0.5709228515625,-4.8065185546875,0.78582763671875,-0.30517578125
0.0606689453125,-0.768798828125,0.580322265625,-2.87628173828125,0.9002685546875,0.0457763671875
0.0601806640625,-0.767333984375,0.586181640625,-3.24249267578125,1.0223388671875,-0.0457763671875
0.0599365234375,-0.76806640625,0.5867919921875,-5.68389892578125,0.49591064453125,-0.41961669921875
0.061767578125,-0.7716064453125,0.5755615234375,-8.38470458984375,-0.28228759765625,-0.7781982421875
0.06494140625,-0.7750244140625,0.5609130859375,-8.3465576171875,-0.41961669921875,-0.8087158203125
0.0653076171875,-0.7750244140625,0.5623779296875,-5.07354736328125,0.396728515625,-0.42724609375
0.06298828125,-0.7724609375,0.5728759765625,-1.739501953125,1.1749267578125,0.030517578125
0.060302734375,-0.77001953125,0.5850830078125,-1.190185546875,1.35040283203125,0.00762939453125
0.0604248046875,-0.7705078125,0.582763671875,-3.4637451171875,0.80108642578125,-0.3509521484375
0.0662841796875,-0.7735595703125,0.5697021484375,-4.913330078125,0.34332275390625,-0.46539306640625
0.0648193359375,-0.775146484375,0.5640869140625,-2.777099609375,0.77056884765625,0.14495849609375
0.0614013671875,-0.772705078125,0.574462890625,0.81634521484375,1.5106201171875,0.5035400390625
0.0596923828125,-0.7686767578125,0.5867919921875,1.42669677734375,1.7547607421875,0.42724609375
0.0606689453125,-0.768798828125,0.5853271484375,-0.90789794921875,1.24359130859375,0.1373291015625
0.062255859375,-0.7686767578125,0.58203125,-2.70843505859375,0.885009765625,-0.14495849609375
0.0616455078125,-0.771240234375,0.5753173828125,-3.509521484375,0.823974609375,-0.17547607421875
0.0638427734375,-0.771240234375,0.5740966796875,-3.02886962890625,1.129150390625,-0.1373291015625
0.0640869140625,-0.771728515625,0.575439453125,-1.97601318359375,1.40380859375,0.08392333984375
0.062255859375,-0.7684326171875,0.5870361328125,-1.51824951171875,1.38092041015625,0.02288818359375
0.0596923828125,-0.76708984375,0.5924072265625,-3.83758544921875,1.129150390625,-0.4119873046875
0.0594482421875,-0.7696533203125,0.5870361328125,-7.75146484375,0.396728515625,-0.95367431640625
0.0609130859375,-0.7740478515625,0.5732421875,-10.3759765625,-0.4425048828125,-1.3427734375
0.0623779296875,-0.77783203125,0.5599365234375,-9.97161865234375,-0.0152587890625,-1.8157958984375
0.067626953125,-0.777099609375,0.556396484375,-6.62994384765625,1.3275146484375,-1.922607421875
0.0653076171875,-0.77685546875,0.5628662109375,-2.03704833984375,2.05230712890625,-0.8697509765625
0.0621337890625,-0.772216796875,0.57861328125,1.12152099609375,2.40325927734375,-0.32806396484375
0.06005859375,-0.7696533203125,0.5894775390625,0.25177001953125,1.97601318359375,-0.335693359375
0.060791015625,-0.7698974609375,0.5858154296875,-3.2501220703125,0.946044921875,-0.80108642578125
0.0780029296875,-0.7684326171875,0.5706787109375,-6.04248046875,0.30517578125,-1.09100341796875
0.0682373046875,-0.777587890625,0.5540771484375,-4.20379638671875,0.63323974609375,0.3204345703125
0.0604248046875,-0.7755126953125,0.566162109375,1.85394287109375,1.220703125,1.10626220703125
0.0589599609375,-0.767578125,0.5858154296875,5.0506591796875,2.17437744140625,0.6561279296875
0.0567626953125,-0.7620849609375,0.6002197265625,3.04412841796875,1.82342529296875,0.4119873046875
0.05908203125,-0.7646484375,0.587646484375,-2.166748046875,0.8392333984375,-0.20599365234375
0.0626220703125,-0.769287109375,0.572021484375,-4.87518310546875,0.43487548828125,-0.579833984375
0.064453125,-0.7724609375,0.56298828125,-3.73077392578125,0.95367431640625,-0.29754638671875
0.0694580078125,-0.7713623046875,0.5660400390625,-0.54168701171875,1.6937255859375,0.2288818359375
0.0654296875,-0.769287109375,0.586669921875,1.13677978515625,1.93023681640625,0.41961669921875
0.060791015625,-0.764404296875,0.5986328125,-3.0364990234375,2.0904541015625,-0.6866455078125
0.05224609375,-0.77001953125,0.5897216796875,-9.52911376953125,1.2664794921875,-1.54876708984375
0.0556640625,-0.775634765625,0.5751953125,-13.99993896484375,0.1068115234375,-2.66265869140625
0.0643310546875,-0.7796630859375,0.5572509765625,-15.228271484375,0.08392333984375,-3.662109375
0.066650390625,-0.7845458984375,0.5419921875,-11.810302734375,0.23651123046875,-2.86102294921875
0.06787109375,-0.7843017578125,0.541748046875,-5.04302978515625,1.5411376953125,-1.5106201171875
0.06201171875,-0.7777099609375,0.5648193359375,1.800537109375,2.81524658203125,-0.17547607421875
0.060302734375,-0.7708740234375,0.5826416015625,3.37982177734375,2.6702880859375,0.20599365234375
0.0582275390625,-0.76904296875,0.58642578125,0.49591064453125,1.74713134765625,-0.08392333984375
0.058349609375,-0.7698974609375,0.5831298828125,-3.22723388671875,0.83160400390625,-0.67901611328125
0.0723876953125,-0.76904296875,0.5701904296875,-5.80596923828125,0.152587890625,-1.02996826171875
0.069580078125,-0.7774658203125,0.55029296875,-4.0130615234375,0.74005126953125,0.25177001953125
0.061767578125,-0.7764892578125,0.5616455078125,3.1890869140625,1.53350830078125,1.40380859375
0.057861328125,-0.7679443359375,0.5849609375,7.49969482421875,2.17437744140625,1.30462646484375
0.052490234375,-0.763916015625,0.6011962890625,5.63812255859375,1.88446044921875,0.99945068359375
0.0560302734375,-0.7635498046875,0.59716796875,-0.09918212890625,1.65557861328125,-0.41961669921875
0.059326171875,-0.767578125,0.5806884765625,-4.70733642578125,0.7476806640625,-1.0833740234375
0.0628662109375,-0.7703857421875,0.570556640625,-5.77545166015625,0.57220458984375,-1.18255615234375
0.0650634765625,-0.77294921875,0.5645751953125,-4.03594970703125,0.90789794921875,-0.762939453125
0.0626220703125,-0.7747802734375,0.5654296875,-1.31988525390625,1.65557861328125,-0.19073486328125
0.0615234375,-0.77099609375,0.58154296875,0.40435791015625,2.17437744140625,0.030517578125
0.0567626953125,-0.76953125,0.5948486328125,-2.166748046875,1.80816650390625,-0.2593994140625
0.058837890625,-0.7703857421875,0.593017578125,-8.47625732421875,0.3509521484375,-1.2969970703125
0.062255859375,-0.77783203125,0.5693359375,-14.34326171875,-1.46484375,-2.197265625
0.06982421875,-0.7835693359375,0.545166015625,-15.1519775390625,-1.25885009765625,-2.90679931640625
0.0703125,-0.7879638671875,0.5321044921875,-9.6435546875,-0.11444091796875,-1.91497802734375
0.068359375,-0.7833251953125,0.5447998046875,-0.946044921875,2.105712890625,-0.60272216796875
0.062744140625,-0.77392578125,0.57568359375,4.852294921875,3.44085693359375,0.35858154296875
0.0594482421875,-0.768310546875,0.5928955078125,3.72314453125,2.9449462890625,0.3204345703125
0.059814453125,-0.7691650390625,0.5889892578125,-1.4190673828125,1.52587890625,-0.3204345703125
0.0755615234375,-0.7685546875,0.57177734375,-5.0048828125,0.45013427734375,-0.74005126953125
0.07373046875,-0.771728515625,0.5609130859375,-3.16619873046875,0.823974609375,0.1068115234375
0.05859375,-0.777099609375,0.559326171875,3.19671630859375,0.4730224609375,2.0751953125
0.0555419921875,-0.764404296875,0.593505859375,7.72857666015625,2.2735595703125,1.4801025390625
0.05419921875,-0.75830078125,0.6121826171875,5.07354736328125,2.02178955078125,0.7476806640625
0.0555419921875,-0.7611083984375,0.60205078125,-2.1820068359375,0.9765625,-0.4425048828125
0.060302734375,-0.7674560546875,0.5789794921875,-7.2784423828125,-0.396728515625,-1.10626220703125
0.0648193359375,-0.7723388671875,0.5623779296875,-7.27081298828125,-0.3509521484375,-1.04522705078125
0.06494140625,-0.774658203125,0.5596923828125,-3.31878662109375,0.72479248046875,-0.37384033203125
0.0643310546875,-0.7725830078125,0.5723876953125,0.69427490234375,1.93023681640625,0.23651123046875
0.0628662109375,-0.77001953125,0.585205078125,1.64794921875,2.3040771484375,0.45013427734375
0.056640625,-0.767578125,0.6043701171875,-1.7547607421875,1.82342529296875,-0.20599365234375
0.056884765625,-0.7708740234375,0.59716796875,-10.26153564453125,-0.091552734375,-1.46484375
0.063720703125,-0.7801513671875,0.5631103515625,-17.08984375,-2.3345947265625,-2.410888671875
0.0726318359375,-0.7852783203125,0.5394287109375,-16.94488525390625,-1.68609619140625,-2.960205078125
0.0745849609375,-0.7882080078125,0.527099609375,-10.2386474609375,-0.46539306640625,-1.83868408203125
0.0699462890625,-0.7847900390625,0.540283203125,-0.78582763671875,1.983642578125,-0.3509521484375
0.0638427734375,-0.77685546875,0.5706787109375,5.71441650390625,3.63922119140625,0.6103515625
0.05859375,-0.76953125,0.5948486328125,5.27191162109375,3.326416015625,0.6561279296875
0.0535888671875,-0.776611328125,0.5731201171875,0.1373291015625,2.00653076171875,0.640869140625
0.06201171875,-0.7755126953125,0.56201171875,-0.31280517578125,0.96893310546875,0.79345703125
0.064453125,-0.7711181640625,0.5689697265625,2.655029296875,1.495361328125,1.0833740234375
0.0582275390625,-0.7646484375,0.5911865234375,4.41741943359375,2.3345947265625,0.67138671875
0.057861328125,-0.763427734375,0.5931396484375,1.80816650390625,1.89971923828125,-0.0152587890625
0.05859375,-0.764404296875,0.5869140625,-1.434326171875,1.28173828125,-0.38909912109375
0.06005859375,-0.76708984375,0.5780029296875,-2.66265869140625,0.946044921875,-0.4730224609375
0.0614013671875,-0.7686767578125,0.5772705078125,-1.861572265625,1.19781494140625,-0.335693359375
0.060546875,-0.7685546875,0.581298828125,-0.90789794921875,1.44195556640625,-0.17547607421875
0.059814453125,-0.76953125,0.58349609375,-1.3580322265625,1.39617919921875,-0.25177001953125
0.06201171875,-0.7705078125,0.5819091796875,-3.25775146484375,1.190185546875,-0.640869140625
0.0634765625,-0.7742919921875,0.5731201171875,-5.08880615234375,0.69427490234375,-0.8544921875
0.064697265625,-0.77734375,0.565185546875,-5.2490234375,0.5950927734375,-0.83160400390625
0.06396484375,-0.7791748046875,0.5631103515625,-3.7994384765625,0.8544921875,-0.54931640625
0.0638427734375,-0.776611328125,0.5712890625,-2.34222412109375,1.190185546875,-0.3662109375
0.065673828125,-0.7772216796875,0.56640625,-2.64739990234375,1.068115234375,-0.31280517578125
0.0687255859375,-0.7764892578125,0.564208984375,-1.93023681640625,0.87738037109375,-0.1068115234375
0.06591796875,-0.77490234375,0.568115234375,-0.06103515625,0.885009765625,0.43487548828125
0.0611572265625,-0.7711181640625,0.5814208984375,0.6256103515625,1.15203857421875,0.30517578125
0.0618896484375,-0.7708740234375,0.5823974609375,-1.0528564453125,0.81634521484375,-0.08392333984375
0.06201171875,-0.771240234375,0.5758056640625,-2.58636474609375,0.49591064453125,-0.1220703125
0.05517578125,-0.7718505859375,0.5726318359375,-2.25067138671875,0.66375732421875,0.0152587890625
0.0604248046875,-0.7701416015625,0.5782470703125,-1.2359619140625,0.946044921875,-0.25177001953125
0.0592041015625,-0.7664794921875,0.5782470703125,-0.17547607421875,0.80108642578125,0.274658203125
0.064208984375,-0.760009765625,0.5909423828125,-0.11444091796875,1.2664794921875,0.0762939453125
0.0589599609375,-0.76318359375,0.593505859375,-2.471923828125,0.823974609375,0.30517578125
0.061279296875,-0.7642822265625,0.5831298828125,-4.9285888671875,0.1678466796875,-0.09918212890625
0.0626220703125,-0.7698974609375,0.571533203125,-5.279541015625,0.22125244140625,-0.19073486328125
0.061767578125,-0.77001953125,0.572265625,-3.21197509765625,0.83160400390625,0.03814697265625
0.06005859375,-0.7686767578125,0.5811767578125,-1.65557861328125,1.1749267578125,0.14495849609375
0.0606689453125,-0.7701416015625,0.5809326171875,-2.61688232421875,1.02996826171875,-0.05340576171875
0.0631103515625,-0.77197265625,0.57373046875,-4.09698486328125,0.64849853515625,-0.34332275390625
0.063720703125,-0.776123046875,0.5662841796875,-4.21142578125,0.6103515625,-0.40435791015625
0.0635986328125,-0.7760009765625,0.566650390625,-2.87628173828125,0.92315673828125,-0.25177001953125
0.06396484375,-0.775146484375,0.5723876953125,-1.800537109375,1.12152099609375,-0.14495849609375
0.0670166015625,-0.7735595703125,0.5745849609375,-1.861572265625,1.0528564453125,-0.1678466796875
0.0621337890625,-0.7760009765625,0.5673828125,-1.73187255859375,0.31280517578125,0.5340576171875
0.0584716796875,-0.7762451171875,0.572021484375,-0.83160400390625,0.79345703125,0.49591064453125
0.06103515625,-0.7720947265625,0.5784912109375,-0.6256103515625,0.8697509765625,0.35858154296875
0.068359375,-0.7677001953125,0.585205078125,-1.6632080078125,0.732421875,0.091552734375
0.0614013671875,-0.769287109375,0.584228515625,-3.23486328125,0.3662109375,0.32806396484375
0.0621337890625,-0.76904296875,0.576904296875,-4.1656494140625,0.30517578125,-0.0762939453125
0.0616455078125,-0.7691650390625,0.5753173828125,-3.37982177734375,0.51116943359375,0.1220703125
0.0594482421875,-0.7674560546875,0.57958984375,-1.89971923828125,0.8697509765625,0.22125244140625
0.05810546875,-0.76708984375,0.5850830078125,-1.48773193359375,1.007080078125,0.22125244140625
0.0604248046875,-0.7655029296875,0.5867919921875,-2.02178955078125,0.9307861328125,0.05340576171875
0.0615234375,-0.7669677734375,0.582275390625,-2.99835205078125,0.74005126953125,-0.030517578125
0.060791015625,-0.7686767578125,0.5806884765625,-3.11279296875,0.8087158203125,-0.06103515625
0.0614013671875,-0.7698974609375,0.57666015625,-2.7313232421875,0.86212158203125,-0.03814697265625
0.0611572265625,-0.77001953125,0.577392578125,-1.9073486328125,0.9613037109375,0.0152587890625
0.060546875,-0.7696533203125,0.58056640625,-1.59454345703125,0.9918212890625,0.06866455078125
0.0615234375,-0.7706298828125,0.582275390625,-2.1514892578125,0.823974609375,-0.03814697265625
0.0623779296875,-0.772216796875,0.5789794921875,-3.19671630859375,0.6103515625,-0.22125244140625
0.0621337890625,-0.7740478515625,0.572509765625,-3.70025634765625,0.52642822265625,-0.32806396484375
0.0623779296875,-0.773193359375,0.5732421875,-3.265380859375,0.6561279296875,-0.29754638671875
0.0631103515625,-0.7728271484375,0.574462890625,-2.8228759765625,0.7781982421875,-0.2593994140625
0.063232421875,-0.77294921875,0.574462890625,-2.6397705078125,0.84686279296875,-0.244140625
0.062744140625,-0.7716064453125,0.57568359375,-2.4871826171875,0.90789794921875,-0.22125244140625
0.062255859375,-0.7706298828125,0.5771484375,-2.46429443359375,0.946044921875,-0.213623046875
0.0616455078125,-0.7703857421875,0.5765380859375,-2.25830078125,0.99945068359375,-0.1983642578125
0.060302734375,-0.76904296875,0.58056640625,-1.7852783203125,1.1138916015625,-0.14495849609375
0.0594482421875,-0.7669677734375,0.5849609375,-2.02178955078125,1.07574462890625,-0.17547607421875
0.0601806640625,-0.7672119140625,0.5806884765625,-3.02886962890625,0.823974609375,-0.30517578125
0.0084228515625,-0.7833251953125,0.57373046875,-2.685546875,0.84686279296875,-1.3427734375
-0.0074462890625,-0.7740478515625,0.6180419921875,2.4871826171875,4.41741943359375,-21.94976806640625
0.0196533203125,-0.7161865234375,0.7052001953125,-9.674072265625,14.12200927734375,-44.22760009765625
0.14404296875,-0.661865234375,0.7545166015625,-33.69903564453125,6.91986083984375,-40.10772705078125
0.0789794921875,-0.817626953125,0.5438232421875,-54.290771484375,-37.3382568359375,-2.9449462890625
0.032470703125,-0.841552734375,0.4412841796875,-63.3697509765625,-63.54522705078125,13.74053955078125
-0.000732421875,-0.8189697265625,0.4891357421875,-46.91314697265625,-69.60296630859375,22.43804931640625
-0.0299072265625,-0.79248046875,0.6192626953125,-39.3524169921875,-67.81005859375,28.3660888671875
-0.0284423828125,-0.7587890625,0.7720947265625,-68.8629150390625,-60.89019775390625,22.2320556640625
0.0362548828125,-0.7401123046875,0.845458984375,-149.00970458984375,-58.26568603515625,11.6424560546875
0.1842041015625,-0.7486572265625,0.7276611328125,-250.0,-64.88800048828125,5.92803955078125
0.3358154296875,-0.8753662109375,0.3629150390625,-250.0,-75.95062255859375,16.571044921875
0.35546875,-1.091064453125,-0.0518798828125,-250.0,-67.68798828125,56.83135986328125
0.2064208984375,-1.40673828125,-0.234619140625,-213.348388671875,-23.94866943359375,114.69268798828125
-0.03466796875,-1.716552734375,0.0594482421875,-3.83758544921875,45.34912109375,153.2135009765625
-0.266845703125,-1.90380859375,0.5533447265625,186.05804443359375,96.96197509765625,154.89959716796875
-0.443359375,-2.0,0.902099609375,215.66009521484375,114.6240234375,108.03985595703125
-0.5489501953125,-2.0,1.14697265625,198.4710693359375,106.353759765625,42.19818115234375
-0.593017578125,-2.0,1.349365234375,200.76751708984375,77.00347900390625,-16.76177978515625
-0.5968017578125,-1.9405517578125,1.492431640625,189.30816650390625,36.73553466796875,-68.05419921875
-0.619140625,-1.8133544921875,1.5638427734375,167.47283935546875,-18.56231689453125,-108.80279541015625
-0.634521484375,-1.7108154296875,1.4713134765625,127.3193359375,-94.01702880859375,-145.4620361328125
-0.65771484375,-1.5911865234375,1.1990966796875,88.49334716796875,-183.3953857421875,-182.88421630859375
-0.825927734375,-1.3231201171875,0.6934814453125,41.534423828125,-250.0,-236.175537109375
-0.9964599609375,-0.8720703125,0.0543212890625,-56.21337890625,-250.0,-250.0
-1.185791015625,-0.201904296875,-0.563232421875,-186.9354248046875,-250.0,-250.0
-1.500732421875,0.7210693359375,-0.89697265625,-250.0,-250.0,-250.0
-1.7852783203125,1.7838134765625,-0.8736572265625,-250.0,-167.6177978515625,-250.0
-1.8382568359375,1.99993896484375,-0.542236328125,-250.0,-85.5255126953125,-250.0
-1.5592041015625,1.99993896484375,-0.27685546875,-244.07196044921875,-64.7735595703125,-250.0
-1.2064208984375,1.99993896484375,-0.3551025390625,-205.535888671875,-103.87420654296875,-250.0
-0.857666015625,1.99993896484375,-0.6837158203125,-159.66033935546875,-153.564453125,-14.2974853515625
-0.44287109375,1.7188720703125,-0.9510498046875,-45.7611083984375,-155.2734375,249.99237060546875
-0.3062744140625,0.474853515625,-0.8404541015625,162.2314453125,-55.59539794921875,249.99237060546875
-0.7208251953125,-1.100830078125,0.1737060546875,249.99237060546875,168.5943603515625,249.99237060546875
-1.3173828125,-2.0,1.3748779296875,249.99237060546875,249.99237060546875,249.99237060546875
-1.6468505859375,-2.0,1.99993896484375,180.74798583984375,249.99237060546875,249.99237060546875
-1.789306640625,-2.0,1.99993896484375,143.88275146484375,249.99237060546875,249.99237060546875
-1.8155517578125,-2.0,1.99993896484375,113.34991455078125,199.01275634765625,249.99237060546875
-1.70654296875,-2.0,1.99993896484375,80.26885986328125,22.62115478515625,12.75634765625
-1.551513671875,-2.0,1.9931640625,11.0015869140625,-131.55364990234375,-198.50921630859375
-1.361083984375,-1.7979736328125,1.10888671875,-99.73907470703125,-213.9892578125,-250.0
-1.080078125,-0.91455078125,0.3822021484375,-176.33819580078125,-215.7135009765625,-250.0
-0.8939208984375,-0.0789794921875,0.028564453125,-175.10986328125,-168.121337890625,-250.0
-0.8656005859375,0.63720703125,-0.043212890625,-146.70562744140625,-110.02349853515625,-250.0
-0.828369140625,1.2069091796875,-0.001708984375,-118.30902099609375,-73.79150390625,-250.0
-0.828369140625,1.616455078125,-0.09326171875,-97.564697265625,-75.72174072265625,-250.0
-0.836669921875,1.8572998046875,-0.3123779296875,-83.03070068359375,-92.39959716796875,-229.522705078125
-0.7872314453125,1.9063720703125,-0.48095703125,-84.3963623046875,-95.550537109375,-130.4168701171875
-0.6895751953125,1.7646484375,-0.505859375,-86.2884521484375,-87.40997314453125,-29.205322265625
-0.500244140625,1.4317626953125,-0.486328125,-64.03350830078125,-82.71026611328125,82.1075439453125
-0.3094482421875,0.8966064453125,-0.4727783203125,-3.60870361328125,-73.43292236328125,219.024658203125
-0.259033203125,0.110595703125,-0.3974609375,116.44744873046875,-39.57366943359375,249.99237060546875
-0.374267578125,-1.0482177734375,0.1671142578125,249.99237060546875,54.901123046875,249.99237060546875
-0.66943359375,-2.0,1.015625,249.99237060546875,159.32464599609375,249.99237060546875
-0.935791015625,-2.0,1.88623046875,199.79095458984375,205.83343505859375,249.99237060546875
-1.1136474609375,-2.0,1.99993896484375,153.0609130859375,171.28753662109375,249.99237060546875
-1.189208984375,-2.0,1.99993896484375,115.4022216796875,74.981689453125,186.25640869140625
-1.1666259765625,-2.0,1.99993896484375,69.76318359375,-34.20257568359375,-49.74365234375
-1.0517578125,-2.0,1.479248046875,-13.8092041015625,-126.4190673828125,-236.26708984375
-0.92578125,-1.75,0.8343505859375,-125.08392333984375,-163.0096435546875,-250.0
-0.87109375,-0.808349609375,0.3143310546875,-196.49505615234375,-149.3072509765625,-250.0
-0.92919921875,0.1865234375,0.073486328125,-211.63177490234375,-112.1368408203125,-250.0
-1.010009765625,1.13720703125,0.03955078125,-224.91455078125,-74.737548828125,-250.0
-1.0701904296875,1.9869384765625,0.0452880859375,-217.132568359375,-59.50164794921875,-250.0
-1.1083984375,1.99993896484375,-0.0166015625,-177.63519287109375,-74.47052001953125,-250.0
-1.000244140625,1.99993896484375,-0.17724609375,-155.05218505859375,-105.11016845703125,-207.83233642578125
-0.767333984375,1.99993896484375,-0.4305419921875,-118.27850341796875,-137.30621337890625,-28.1982421875
-0.4852294921875,1.4930419921875,-0.6688232421875,-14.28985595703125,-145.37811279296875,187.20245361328125
-0.476806640625,0.4222412109375,-0.7034912109375,174.99542236328125,-94.73419189453125,249.99237060546875
-0.7799072265625,-1.1060791015625,0.0341796875,249.99237060546875,51.5899658203125,249.99237060546875
-1.1878662109375,-2.0,1.1243896484375,249.99237060546875,204.82635498046875,249.99237060546875
-1.4534912109375,-2.0,1.99993896484375,249.99237060546875,249.99237060546875,249.99237060546875
-1.58544921875,-2.0,1.99993896484375,208.4503173828125,205.46722412109375,249.99237060546875
-1.585693359375,-2.0,1.99993896484375,158.87451171875,77.4383544921875,136.83319091796875
-1.45166015625,-2.0,1.9036865234375,89.59197998046875,-55.2215576171875,-118.896484375
-1.243896484375,-2.0,1.2286376953125,-31.86798095703125,-128.6773681640625,-250.0
-0.937744140625,-1.354736328125,0.598876953125,-144.27947998046875,-131.76727294921875,-250.0
-0.6953125,-0.4375,0.1463623046875,-156.3873291015625,-106.39190673828125,-250.0
-0.65283203125,0.3746337890625,-0.07421875,-109.64202880859375,-71.26617431640625,-250.0
-0.7117919921875,1.03857421875,-0.097900390625,-93.26934814453125,-36.92626953125,-250.0
-0.7933349609375,1.5921630859375,-0.04541015625,-107.62786865234375,-19.95086669921875,-250.0
-0.9202880859375,1.99993896484375,-0.0709228515625,-116.44744873046875,-35.25543212890625,-250.0
-0.919921875,1.99993896484375,-0.1990966796875,-121.45233154296875,-68.3135986328125,-194.35882568359375
-0.80078125,1.99993896484375,-0.39501953125,-120.70465087890625,-100.42572021484375,-71.868896484375
-0.5849609375,1.7777099609375,-0.6312255859375,-85.56365966796875,-119.873046875,91.75872802734375
-0.409423828125,0.9443359375,-0.7559814453125,25.52032470703125,-101.64642333984375,249.99237060546875
-0.60693359375,-0.274169921875,-0.4847412109375,232.1014404296875,-14.47296142578125,249.99237060546875
-1.056640625,-1.9674072265625,0.576416015625,249.99237060546875,148.6968994140625,249.99237060546875
-1.451171875,-2.0,1.695068359375,249.99237060546875,249.99237060546875,249.99237060546875
-1.6624755859375,-2.0,1.99993896484375,219.49005126953125,249.99237060546875,249.99237060546875
-1.7386474609375,-2.0,1.99993896484375,168.701171875,157.0587158203125,249.99237060546875
-1.628662109375,-2.0,1.99993896484375,125.396728515625,20.91217041015625,21.44622802734375
-1.4085693359375,-2.0,1.7421875,52.1240234375,-102.63824462890625,-182.41119384765625
-1.1556396484375,-2.0,0.978759765625,-54.26788330078125,-160.60638427734375,-250.0
-0.9429931640625,-1.1708984375,0.3643798828125,-127.61688232421875,-151.31378173828125,-250.0
-0.8714599609375,-0.2618408203125,0.075439453125,-151.5045166015625,-105.78155517578125,-250.0
-0.8743896484375,0.63232421875,0.0755615234375,-163.7725830078125,-56.21337890625,-250.0
-0.8984375,1.4442138671875,0.1241455078125,-167.53387451171875,-35.63690185546875,-250.0
-0.9315185546875,1.99993896484375,0.0364990234375,-145.48492431640625,-55.8929443359375,-250.0
-0.8646240234375,1.99993896484375,-0.2275390625,-126.40380859375,-94.87152099609375,-250.0
-0.7305908203125,1.99993896484375,-0.570068359375,-117.31719970703125,-125.4730224609375,-133.12530517578125
-0.5762939453125,1.873779296875,-0.903564453125,-84.19036865234375,-134.92584228515625,40.130615234375
-0.3616943359375,1.1226806640625,-1.017578125,8.8958740234375,-100.59356689453125,235.9771728515625
-0.4912109375,0.112548828125,-0.7535400390625,191.8792724609375,1.129150390625,249.99237060546875
-0.9600830078125,-1.3359375,0.3599853515625,249.99237060546875,182.18994140625,249.99237060546875
-1.498046875,-2.0,1.608154296875,249.99237060546875,249.99237060546875,249.99237060546875
-1.79443359375,-2.0,1.99993896484375,249.99237060546875,249.99237060546875,249.99237060546875
-1.94580078125,-2.0,1.99993896484375,195.10650634765625,214.324951171875,249.99237060546875
-1.8577880859375,-2.0,1.99993896484375,133.70513916015625,42.57965087890625,89.569091796875
-1.7135009765625,-2.0,1.7911376953125,56.70928955078125,-121.03271484375,-142.9290771484375
-1.415283203125,-1.9520263671875,0.901123046875,-66.32232666015625,-193.59588623046875,-250.0
-1.128173828125,-0.968994140625,0.2344970703125,-169.769287109375,-177.093505859375,-250.0
-1.01171875,0.034423828125,-0.0426025390625,-208.36639404296875,-116.18804931640625,-250.0
-0.986572265625,0.987548828125,-0.0042724609375,-194.0155029296875,-60.3179931640625,-250.0
-0.9749755859375,1.807861328125,0.0601806640625,-171.2188720703125,-41.34368896484375,-250.0
-0.970947265625,1.99993896484375,-0.0296630859375,-143.89801025390625,-65.87982177734375,-250.0
-0.885986328125,1.99993896484375,-0.2772216796875,-137.5885009765625,-104.37774658203125,-235.77880859375
-0.778076171875,1.99993896484375,-0.5885009765625,-123.23760986328125,-133.9111328125,-70.2362060546875
-0.655029296875,1.6561279296875,-0.8673095703125,-76.42364501953125,-139.16778564453125,105.9722900390625
-0.460693359375,0.8905029296875,-0.8878173828125,29.30450439453125,-92.87261962890625,249.99237060546875
-0.6573486328125,-0.2396240234375,-0.4742431640625,216.89605712890625,31.24237060546875,249.99237060546875
-1.30419921875,-1.828369140625,0.7086181640625,249.99237060546875,222.60284423828125,249.99237060546875
-1.920654296875,-2.0,1.8531494140625,249.99237060546875,249.99237060546875,249.99237060546875
-2.0,-2.0,1.99993896484375,236.9384765625,249.99237060546875,249.99237060546875
-2.0,-2.0,1.99993896484375,198.15826416015625,219.44427490234375,249.99237060546875
-2.0,-2.0,1.99993896484375,164.57366943359375,40.79437255859375,97.43499755859375
-2.0,-2.0,1.8729248046875,104.71343994140625,-134.9029541015625,-153.46527099609375
-2.0,-1.9224853515625,0.970947265625,-27.24456787109375,-232.60498046875,-250.0
-1.7237548828125,-0.743408203125,0.2786865234375,-184.0362548828125,-233.81805419921875,-250.0
-1.4576416015625,0.4232177734375,-0.0125732421875,-250.0,-174.55291748046875,-250.0
-1.2786865234375,1.477783203125,0.083984375,-201.171875,-114.654541015625,-250.0
-1.15478515625,1.99993896484375,0.1846923828125,-138.22174072265625,-95.5810546875,-250.0
-1.0726318359375,1.99993896484375,-0.0029296875,-107.60498046875,-128.60870361328125,-250.0
-0.9207763671875,1.99993896484375,-0.400390625,-99.7314453125,-174.17144775390625,-234.283447265625
-0.689208984375,1.99993896484375,-0.79931640625,-97.7935791015625,-198.06671142578125,-76.28631591796875
-0.3817138671875,1.53369140625,-1.1048583984375,-67.56591796875,-187.896728515625,90.50750732421875
-0.1397705078125,0.6986083984375,-1.1654052734375,47.92022705078125,-125.46539306640625,249.99237060546875
-0.4400634765625,-0.464111328125,-0.710205078125,249.99237060546875,14.97650146484375,249.99237060546875
-1.0743408203125,-2.0,0.540283203125,249.99237060546875,221.0845947265625,249.99237060546875
-1.65283203125,-2.0,1.726806640625,249.99237060546875,249.99237060546875,249.99237060546875
-2.0,-2.0,1.99993896484375,249.99237060546875,249.99237060546875,249.99237060546875
-2.0,-2.0,1.99993896484375,225.34942626953125,217.3004150390625,249.99237060546875
-2.0,-2.0,1.99993896484375,179.02374267578125,44.50225830078125,3.0364990234375
-1.9930419921875,-2.0,1.827392578125,108.08563232421875,-131.38580322265625,-221.21429443359375
-1.8643798828125,-1.4569091796875,0.9422607421875,-37.33062744140625,-229.34722900390625,-250.0
-1.6512451171875,-0.2520751953125,0.3099365234375,-208.5418701171875,-226.46331787109375,-250.0
-1.425048828125,0.9320068359375,0.03662109375,-250.0,-176.56707763671875,-250.0
-1.280517578125,1.9852294921875,-0.0069580078125,-198.1964111328125,-140.3045654296875,-250.0
-1.15673828125,1.99993896484375,-0.1588134765625,-156.05926513671875,-133.758544921875,-250.0
-1.00634765625,1.99993896484375,-0.3839111328125,-134.735107421875,-142.18902587890625,-250.0
-0.9176025390625,1.99993896484375,-0.644775390625,-123.077392578125,-153.92303466796875,-137.786865234375
-0.74609375,1.995361328125,-0.88232421875,-94.3450927734375,-154.5867919921875,42.65594482421875
-0.437255859375,1.2027587890625,-0.9310302734375,-8.941650390625,-112.945556640625,246.69647216796875
-0.59033203125,0.0909423828125,-0.6527099609375,185.90545654296875,-6.27899169921875,249.99237060546875
-1.2432861328125,-1.4752197265625,0.4505615234375,249.99237060546875,184.6771240234375,249.99237060546875
-1.8841552734375,-2.0,1.6009521484375,249.99237060546875,249.99237060546875,249.99237060546875
-2.0,-2.0,1.99993896484375,249.99237060546875,249.99237060546875,249.99237060546875
-2.0,-2.0,1.99993896484375,234.405517578125,230.30853271484375,249.99237060546875
-2.0,-2.0,1.99993896484375,178.18450927734375,62.62969970703125,97.23663330078125
-2.0,-2.0,1.8367919921875,89.13421630859375,-107.42950439453125,-165.740966796875
-1.839111328125,-1.5762939453125,1.0050048828125,-69.488525390625,-203.98712158203125,-250.0
-1.64990234375,-0.334228515625,0.381103515625,-239.19677734375,-205.1849365234375,-250.0
-1.490234375,0.9058837890625,0.1246337890625,-250.0,-164.0777587890625,-250.0
-1.345703125,1.99993896484375,0.0906982421875,-217.041015625,-133.72802734375,-250.0
-1.1600341796875,1.99993896484375,-0.0118408203125,-171.844482421875,-130.77545166015625,-250.0
-1.0303955078125,1.99993896484375,-0.2005615234375,-143.585205078125,-145.8740234375,-250.0
-0.95361328125,1.99993896484375,-0.464599609375,-125.9613037109375,-164.642333984375,-127.4871826171875
-0.673828125,1.8397216796875,-0.63818359375,-73.24981689453125,-156.56280517578125,84.8236083984375
-0.5040283203125,0.9122314453125,-0.613037109375,75.5767822265625,-99.49493408203125,249.99237060546875
-0.9044189453125,-0.413818359375,-0.0987548828125,249.99237060546875,31.463623046875,249.99237060546875
-1.5565185546875,-2.0,0.884521484375,249.99237060546875,201.019287109375,249.99237060546875
-1.954833984375,-2.0,1.7646484375,249.99237060546875,249.99237060546875,249.99237060546875
-2.0,-2.0,1.99993896484375,249.91607666015625,249.99237060546875,249.99237060546875
-2.0,-2.0,1.99993896484375,205.25360107421875,158.02001953125,249.99237060546875
-1.9644775390625,-2.0,1.99993896484375,150.99334716796875,11.31439208984375,18.44024658203125
-1.768310546875,-2.0,1.335205078125,46.905517578125,-120.26214599609375,-228.9886474609375
-1.4835205078125,-1.407470703125,0.61474609375,-111.15264892578125,-165.8935546875,-250.0
-1.1890869140625,-0.2783203125,0.147216796875,-246.43707275390625,-134.2010498046875,-250.0
-0.9873046875,0.7860107421875,0.0504150390625,-246.6888427734375,-78.826904296875,-250.0
-0.8885498046875,1.6668701171875,0.1300048828125,-180.5267333984375,-43.8995361328125,-250.0
-0.8074951171875,1.99993896484375,0.149658203125,-145.4010009765625,-43.40362548828125,-250.0
-0.737548828125,1.99993896484375,0.077880859375,-127.99072265625,-68.47381591796875,-250.0
-0.7052001953125,1.99993896484375,-0.1009521484375,-111.90032958984375,-104.53033447265625,-105.27801513671875
-0.583984375,1.604248046875,-0.295654296875,-60.516357421875,-122.894287109375,84.5947265625
-0.524169921875,0.70654296875,-0.3773193359375,61.8438720703125,-89.91241455078125,249.99237060546875
-0.869384765625,-0.612548828125,0.062255859375,249.99237060546875,22.2930908203125,249.99237060546875
-1.3729248046875,-2.0,0.9737548828125,249.99237060546875,169.25048828125,249.99237060546875
-1.5909423828125,-2.0,1.7183837890625,249.99237060546875,233.97064208984375,249.99237060546875
-1.7166748046875,-2.0,1.99993896484375,224.47967529296875,196.4569091796875,249.99237060546875
-1.6124267578125,-2.0,1.99993896484375,162.86468505859375,97.4884033203125,168.88427734375
-1.336669921875,-2.0,1.6422119140625,100.6317138671875,-14.93072509765625,-73.20404052734375
-1.2059326171875,-1.736328125,1.115234375,6.6375732421875,-113.99078369140625,-250.0
-1.0870361328125,-0.68359375,0.5343017578125,-138.60321044921875,-160.62164306640625,-250.0
-0.8658447265625,0.339111328125,0.1087646484375,-214.71405029296875,-161.18621826171875,-250.0
-0.5830078125,1.1834716796875,-0.078857421875,-163.6505126953125,-142.7154541015625,-250.0
-0.3193359375,1.63623046875,-0.16015625,-107.84912109375,-121.11663818359375,-250.0
-0.1552734375,1.559326171875,-0.2655029296875,-82.9925537109375,-100.99029541015625,-232.2540283203125
-0.074462890625,1.1231689453125,-0.3182373046875,-10.47515869140625,-73.9898681640625,-24.40643310546875
-0.1383056640625,0.5086669921875,-0.2281494140625,121.9482421875,-21.64459228515625,190.10162353515625
-0.294189453125,-0.29345703125,0.1802978515625,249.99237060546875,71.37298583984375,249.99237060546875
-0.4896240234375,-1.2191162109375,0.693115234375,249.99237060546875,149.90234375,249.99237060546875
-0.58740234375,-2.0,1.015869140625,176.2542724609375,171.112060546875,249.99237060546875
-0.635009765625,-2.0,1.263427734375,138.86260986328125,146.1334228515625,249.99237060546875
-0.6234130859375,-2.0,1.30810546875,102.21099853515625,95.3216552734375,191.79534912109375
-0.579345703125,-2.0,1.2371826171875,54.95452880859375,49.47662353515625,54.3975830078125
-0.5128173828125,-2.0,1.1741943359375,26.3519287109375,23.93341064453125,-40.77911376953125
-0.4903564453125,-1.8297119140625,1.140869140625,24.60479736328125,8.6822509765625,-97.70965576171875
-0.4637451171875,-1.54541015625,1.0687255859375,28.23638916015625,-14.190673828125,-139.862060546875
-0.3709716796875,-1.1800537109375,0.9290771484375,6.15692138671875,-52.703857421875,-189.59808349609375
-0.46533203125,-0.7054443359375,0.7139892578125,-70.98388671875,-116.0430908203125,-250.0
-0.4517822265625,-0.1351318359375,0.3529052734375,-212.1429443359375,-162.41455078125,-250.0
-0.3111572265625,0.509765625,-0.0380859375,-250.0,-174.61395263671875,-250.0
-0.197998046875,1.1561279296875,-0.31298828125,-246.98638916015625,-171.05865478515625,-250.0
-0.0545654296875,1.5777587890625,-0.5072021484375,-183.50982666015625,-150.88653564453125,-250.0
-0.0113525390625,1.5738525390625,-0.6712646484375,-149.45220947265625,-122.528076171875,-145.477294921875
-0.0191650390625,1.2415771484375,-0.7606201171875,-100.31890869140625,-86.9903564453125,17.79937744140625
0.00244140625,0.66748046875,-0.6722412109375,-12.48931884765625,-23.529052734375,201.2939453125
-0.2647705078125,-0.2183837890625,-0.299072265625,151.3519287109375,84.26666259765625,249.99237060546875
-0.713623046875,-1.42333984375,0.662841796875,249.99237060546875,229.31671142578125,249.99237060546875
-1.0654296875,-2.0,1.5042724609375,249.99237060546875,249.99237060546875,249.99237060546875
-1.254638671875,-2.0,1.99993896484375,197.66998291015625,249.99237060546875,249.99237060546875
-1.3519287109375,-2.0,1.99993896484375,163.53607177734375,164.2608642578125,249.99237060546875
-1.2218017578125,-2.0,1.785400390625,105.1025390625,4.5928955078125,37.506103515625
-1.2650146484375,-1.89013671875,1.1392822265625,-17.25006103515625,-137.93182373046875,-198.58551025390625
-1.2152099609375,-0.7257080078125,0.579345703125,-231.6741943359375,-184.02099609375,-250.0
-0.956787109375,0.4100341796875,0.2337646484375,-250.0,-153.08380126953125,-250.0
-0.6351318359375,1.364990234375,0.2294921875,-250.0,-116.20330810546875,-250.0
-0.413818359375,1.7471923828125,0.1746826171875,-179.69512939453125,-104.5074462890625,-250.0
-0.341064453125,1.55419921875,-0.0767822265625,-112.22076416015625,-111.59515380859375,-174.70550537109375
-0.3111572265625,1.1231689453125,-0.2752685546875,16.41845703125,-109.16900634765625,45.00579833984375
-0.3603515625,0.5135498046875,-0.320068359375,139.0228271484375,-65.00244140625,241.99676513671875
-0.325439453125,-0.2513427734375,-0.013427734375,227.0660400390625,29.6630859375,249.99237060546875
-0.594482421875,-1.07373046875,0.40283203125,232.39898681640625,125.28228759765625,249.99237060546875
-0.579833984375,-1.7901611328125,0.779541015625,176.025390625,156.80694580078125,249.99237060546875
-0.5325927734375,-2.0,0.9886474609375,125.0152587890625,143.1427001953125,249.99237060546875
-0.447265625,-2.0,1.0789794921875,104.98809814453125,104.11834716796875,226.50146484375
-0.3843994140625,-1.7547607421875,1.029296875,70.82366943359375,50.5523681640625,99.8992919921875
-0.3529052734375,-1.3428955078125,0.902587890625,11.627197265625,-9.22393798828125,-2.6092529296875
-0.40087890625,-0.9853515625,0.694091796875,-67.169189453125,-73.34136962890625,-72.15118408203125
-0.3043212890625,-0.748291015625,0.505126953125,-115.7073974609375,-103.35540771484375,-105.50689697265625
-0.1302490234375,-0.599853515625,0.3773193359375,-80.078125,-109.039306640625,-90.70587158203125
-0.0318603515625,-0.4683837890625,0.28466796875,15.5181884765625,-103.08074951171875,-48.82049560546875
0.007080078125,-0.3704833984375,0.2042236328125,93.84918212890625,-95.46661376953125,-5.37872314453125
-0.1910400390625,-0.8492431640625,0.812255859375,94.0704345703125,-73.35662841796875,24.9481201171875
-0.0009765625,-0.7210693359375,0.6422119140625,21.03424072265625,-93.0938720703125,-59.4482421875
0.08642578125,-0.6715087890625,0.4127197265625,-40.557861328125,-83.0535888671875,-57.31964111328125
0.1114501953125,-0.720703125,0.27734375,-39.48974609375,-52.6580810546875,-15.4876708984375
0.10205078125,-0.87255859375,0.2518310546875,-0.701904296875,-22.186279296875,8.96453857421875
0.0728759765625,-0.933837890625,0.2601318359375,30.0750732421875,-4.98199462890625,10.18524169921875
0.0577392578125,-0.933349609375,0.274658203125,31.9366455078125,2.3956298828125,4.33349609375
0.061279296875,-0.9364013671875,0.275146484375,26.48162841796875,1.6632080078125,3.68499755859375
0.0654296875,-0.9349365234375,0.2860107421875,25.4669189453125,1.4495849609375,2.9754638671875
0.069091796875,-0.9302978515625,0.3031005859375,26.9775390625,1.39617919921875,2.14385986328125
0.0723876953125,-0.923583984375,0.3228759765625,28.045654296875,1.52587890625,1.86920166015625
0.072021484375,-0.9183349609375,0.34423828125,26.74102783203125,2.105712890625,2.20489501953125
0.0687255859375,-0.9146728515625,0.36328125,22.308349609375,2.58636474609375,2.105712890625
0.0693359375,-0.912109375,0.372802734375,15.2740478515625,1.9683837890625,1.30462646484375
0.072021484375,-0.91259765625,0.3687744140625,7.4920654296875,0.8392333984375,0.5645751953125
0.073486328125,-0.914794921875,0.3597412109375,1.3275146484375,0.4730224609375,0.1068115234375
0.0743408203125,-0.9178466796875,0.3504638671875,-1.70135498046875,0.3509521484375,-0.152587890625
0.075439453125,-0.9188232421875,0.34375,-1.5869140625,0.38909912109375,-0.2288818359375
0.07568359375,-0.9190673828125,0.345947265625,0.4119873046875,0.90789794921875,-0.08392333984375
0.0751953125,-0.9173583984375,0.353515625,2.29644775390625,1.3275146484375,0.0762939453125
0.074462890625,-0.9149169921875,0.3621826171875,2.58636474609375,1.40380859375,0.09918212890625
0.0740966796875,-0.91357421875,0.3665771484375,0.9765625,1.21307373046875,-0.03814697265625
0.07470703125,-0.9136962890625,0.3638916015625,-1.54876708984375,0.83160400390625,-0.23651123046875
0.075927734375,-0.9154052734375,0.35791015625,-3.570556640625,0.54931640625,-0.3814697265625
0.0772705078125,-0.9161376953125,0.35302734375,-3.997802734375,0.45013427734375,-0.46539306640625
0.0771484375,-0.9163818359375,0.35009765625,-2.89154052734375,0.60272216796875,-0.3814697265625
0.0760498046875,-0.916259765625,0.353515625,-1.21307373046875,1.02996826171875,-0.2288818359375
0.074951171875,-0.9146728515625,0.3587646484375,-0.19073486328125,1.15966796875,-0.09918212890625
0.07373046875,-0.9141845703125,0.3629150390625,-0.41961669921875,1.1138916015625,-0.12969970703125
0.0740966796875,-0.913818359375,0.36279296875,-1.68609619140625,0.96893310546875,-0.30517578125
0.0753173828125,-0.9144287109375,0.359130859375,-2.96783447265625,0.6866455078125,-0.37384033203125
0.07568359375,-0.914794921875,0.3564453125,-3.4332275390625,0.70953369140625,-0.37384033203125
0.075439453125,-0.9154052734375,0.35546875,-2.9754638671875,0.74005126953125,-0.37384033203125
0.0765380859375,-0.9144287109375,0.356201171875,-2.03704833984375,0.8697509765625,-0.3509521484375
0.0750732421875,-0.9139404296875,0.3592529296875,-1.3427734375,1.04522705078125,-0.244140625
0.0751953125,-0.913330078125,0.3619384765625,-1.40380859375,1.02996826171875,-0.26702880859375
0.0753173828125,-0.9134521484375,0.362548828125,-2.2430419921875,0.90789794921875,-0.34332275390625
0.0750732421875,-0.9141845703125,0.3597412109375,-3.16619873046875,0.7476806640625,-0.37384033203125
0.07470703125,-0.9154052734375,0.3558349609375,-3.631591796875,0.79345703125,-0.42724609375
0.0748291015625,-0.915771484375,0.35400390625,-3.33404541015625,0.92315673828125,-0.396728515625
0.073974609375,-0.915771484375,0.3546142578125,-2.41851806640625,0.9918212890625,-0.23651123046875
0.07470703125,-0.915283203125,0.35595703125,-1.28173828125,0.95367431640625,-0.19073486328125
0.07470703125,-0.9139404296875,0.3583984375,-0.6256103515625,0.9002685546875,-0.274658203125
0.0733642578125,-0.91357421875,0.3619384765625,-0.8392333984375,1.07574462890625,-0.152587890625
0.0684814453125,-0.9163818359375,0.359130859375,-1.6632080078125,0.99945068359375,-0.12969970703125
0.0704345703125,-0.9163818359375,0.35693359375,-1.9683837890625,0.98419189453125,-0.23651123046875
0.073974609375,-0.915283203125,0.3580322265625,-1.708984375,1.5411376953125,-0.3662109375
0.0772705078125,-0.9129638671875,0.35986328125,-1.129150390625,1.71661376953125,-0.42724609375
0.0792236328125,-0.9114990234375,0.3616943359375,-0.5340576171875,1.74713134765625,-0.16021728515625
0.0802001953125,-0.9097900390625,0.364990234375,-0.16021728515625,2.105712890625,-0.3814697265625
0.0692138671875,-0.9139404296875,0.365478515625,-0.45013427734375,2.02178955078125,-0.4119873046875
0.0714111328125,-0.913818359375,0.36328125,-1.19781494140625,1.3885498046875,-0.5035400390625
0.078125,-0.9110107421875,0.363037109375,-1.8768310546875,0.96893310546875,-0.4425048828125
0.078125,-0.91162109375,0.3626708984375,-2.4261474609375,1.16729736328125,-0.48828125
0.0770263671875,-0.9122314453125,0.361328125,-2.655029296875,1.12152099609375,-0.74005126953125
0.07080078125,-0.91650390625,0.3572998046875,-2.6092529296875,0.91552734375,-0.457763671875
0.0723876953125,-0.9146728515625,0.3592529296875,-2.410888671875,1.3427734375,-0.52642822265625
0.072509765625,-0.914306640625,0.3597412109375,-2.0904541015625,1.312255859375,-0.45013427734375
0.075927734375,-0.911865234375,0.36181640625,-2.00653076171875,1.24359130859375,-0.5950927734375
0.0760498046875,-0.911865234375,0.3629150390625,-1.922607421875,0.9765625,-0.396728515625
0.074951171875,-0.9119873046875,0.3642578125,-2.044677734375,0.96893310546875,-0.3204345703125
0.075439453125,-0.9117431640625,0.364013671875,-2.38800048828125,0.83160400390625,-0.51116943359375
0.07666015625,-0.9111328125,0.3624267578125,-2.655029296875,0.5340576171875,-0.4730224609375
0.0751953125,-0.9111328125,0.3636474609375,-2.96783447265625,0.9613037109375,-0.31280517578125
0.0748291015625,-0.9112548828125,0.364990234375,-3.41033935546875,1.06048583984375,-0.3814697265625
0.0614013671875,-0.9168701171875,0.3621826171875,-3.63922119140625,0.5950927734375,-0.43487548828125
0.0518798828125,-0.9146728515625,0.3443603515625,-2.6397705078125,-0.64849853515625,-0.86212158203125
0.0487060546875,-0.93017578125,0.3077392578125,0.335693359375,1.5106201171875,0.0762939453125
0.0550537109375,-0.93603515625,0.292236328125,10.58197021484375,12.176513671875,-6.53839111328125
0.0714111328125,-0.9271240234375,0.31396484375,25.52032470703125,24.7802734375,-13.14544677734375
0.06298828125,-0.9093017578125,0.3477783203125,39.03961181640625,34.6221923828125,-15.69366455078125
0.0814208984375,-0.8873291015625,0.4324951171875,42.86956787109375,37.66632080078125,-13.671875
0.04443359375,-0.8807373046875,0.4534912109375,30.731201171875,28.26690673828125,-9.26971435546875
0.04296875,-0.8924560546875,0.4356689453125,16.38031005859375,14.923095703125,-5.37109375
0.06396484375,-0.8941650390625,0.40771484375,6.8817138671875,7.781982421875,-6.8206787109375
0.097412109375,-0.882568359375,0.414306640625,1.19781494140625,8.88824462890625,-9.43756103515625
0.1123046875,-0.87744140625,0.4332275390625,-6.3934326171875,11.61956787109375,-8.514404296875
0.0947265625,-0.8846435546875,0.427490234375,-15.34271240234375,10.7421875,-6.75201416015625
0.0885009765625,-0.891845703125,0.40478515625,-22.13287353515625,6.81304931640625,-5.9967041015625
0.0926513671875,-0.9014892578125,0.375,-22.9949951171875,2.74658203125,-4.82940673828125
0.0921630859375,-0.907470703125,0.3543701171875,-18.30291748046875,1.373291015625,-3.41033935546875
0.087890625,-0.9075927734375,0.3563232421875,-10.1470947265625,2.8839111328125,-2.37274169921875
0.0830078125,-0.9044189453125,0.3692626953125,-2.43377685546875,3.68499755859375,-1.41143798828125
0.078369140625,-0.9014892578125,0.381591796875,2.13623046875,3.27301025390625,-0.79345703125
0.0762939453125,-0.8980712890625,0.3914794921875,3.28826904296875,2.31170654296875,-0.41961669921875
0.031982421875,-0.894287109375,0.387939453125,2.61688232421875,1.2664794921875,-0.5950927734375
0.0330810546875,-0.910400390625,0.3656005859375,2.0294189453125,-1.79290771484375,6.24847412109375
0.072265625,-0.9296875,0.323974609375,11.00921630859375,-5.18798828125,5.47027587890625
0.109130859375,-0.896484375,0.3436279296875,25.360107421875,3.65447998046875,-5.79833984375
0.1087646484375,-0.8892822265625,0.38525390625,33.477783203125,14.95361328125,-2.96783447265625
0.080810546875,-0.8800048828125,0.437255859375,35.9039306640625,18.34869384765625,-0.64849853515625
0.0693359375,-0.8665771484375,0.4853515625,28.3203125,13.93890380859375,-1.5411376953125
0.0709228515625,-0.859375,0.5013427734375,9.62066650390625,7.0953369140625,-3.05938720703125
0.06982421875,-0.8642578125,0.483154296875,-15.25115966796875,4.45556640625,-4.7760009765625
0.071533203125,-0.8736572265625,0.44775390625,-35.74371337890625,2.8839111328125,-6.26373291015625
0.0745849609375,-0.8900146484375,0.3984375,-44.70062255859375,-0.89263916015625,-6.17218017578125
0.0841064453125,-0.9078369140625,0.3470458984375,-41.95404052734375,-4.40216064453125,-5.18798828125
0.0906982421875,-0.9149169921875,0.3192138671875,-30.853271484375,-2.69317626953125,-4.302978515625
0.0863037109375,-0.9150390625,0.328857421875,-14.39666748046875,1.5716552734375,-2.50244140625
0.0804443359375,-0.9102783203125,0.3494873046875,1.06048583984375,3.2196044921875,-0.42724609375
0.0394287109375,-0.910400390625,0.3563232421875,11.83319091796875,2.26593017578125,0.40435791015625
0.0267333984375,-0.9005126953125,0.3758544921875,17.31109619140625,1.76239013671875,3.21197509765625
0.052490234375,-0.9154052734375,0.3614501953125,21.27838134765625,-3.02886962890625,8.00323486328125
0.094970703125,-0.8935546875,0.3623046875,30.32684326171875,-2.6702880859375,2.74658203125
0.100341796875,-0.888671875,0.3966064453125,36.2396240234375,4.5318603515625,3.8299560546875
0.0960693359375,-0.8775634765625,0.4324951171875,37.80364990234375,9.17816162109375,3.30352783203125
0.0733642578125,-0.861572265625,0.4921875,29.31976318359375,13.24462890625,1.01470947265625
0.0643310546875,-0.85107421875,0.523681640625,8.7890625,11.6119384765625,-1.861572265625
0.0616455078125,-0.8580322265625,0.5013427734375,-17.43316650390625,5.62286376953125,-4.78363037109375
0.0699462890625,-0.8670654296875,0.4564208984375,-38.848876953125,0.70953369140625,-7.7362060546875
0.0755615234375,-0.8875732421875,0.3990478515625,-47.46246337890625,-3.76129150390625,-7.354736328125
0.084716796875,-0.9031982421875,0.35009765625,-43.86138916015625,-4.69970703125,-6.34002685546875
0.0892333984375,-0.909912109375,0.3310546875,-28.4271240234375,-1.922607421875,-4.87518310546875
0.089599609375,-0.9078369140625,0.341552734375,-10.467529296875,1.15966796875,-2.54058837890625
0.0855712890625,-0.9033203125,0.35888671875,3.3111572265625,2.410888671875,-0.1220703125
0.0767822265625,-0.8992919921875,0.3804931640625,12.481689453125,3.4637451171875,1.67083740234375
0.0687255859375,-0.892578125,0.4073486328125,15.60211181640625,4.14276123046875,2.288818359375
-0.01806640625,-0.8914794921875,0.391845703125,14.5111083984375,2.9754638671875,1.16729736328125
-0.04833984375,-0.9039306640625,0.40283203125,14.4500732421875,2.02178955078125,5.5999755859375
0.010498046875,-0.9036865234375,0.398193359375,12.73345947265625,-7.232666015625,8.84246826171875
0.100341796875,-0.8944091796875,0.3504638671875,15.86151123046875,-14.09912109375,6.23321533203125
0.1337890625,-0.8963623046875,0.35888671875,26.51214599609375,-2.37274169921875,6.2255859375
0.1328125,-0.8829345703125,0.390625,39.337158203125,8.7890625,3.35693359375
0.1070556640625,-0.8662109375,0.47802734375,42.144775390625,18.49365234375,1.9683837890625
0.0789794921875,-0.8428955078125,0.54541015625,24.68109130859375,18.57757568359375,-1.15203857421875
0.063720703125,-0.8394775390625,0.5465087890625,-4.852294921875,11.94000244140625,-4.41741943359375
0.0655517578125,-0.85009765625,0.5030517578125,-32.8521728515625,4.1961669921875,-7.31658935546875
0.0775146484375,-0.8641357421875,0.448486328125,-50.0946044921875,-1.556396484375,-9.124755859375
0.086181640625,-0.8826904296875,0.386962890625,-53.81011962890625,-4.73785400390625,-8.514404296875
0.085693359375,-0.90234375,0.3436279296875,-43.93768310546875,-3.89862060546875,-7.08770751953125
0.0904541015625,-0.907470703125,0.330078125,-27.52685546875,-1.50299072265625,-4.9285888671875
0.0892333984375,-0.905029296875,0.33642578125,-8.8958740234375,1.495361328125,-2.06756591796875
0.08251953125,-0.8994140625,0.359130859375,8.30841064453125,4.119873046875,0.66375732421875
0.078857421875,-0.8885498046875,0.3939208984375,19.775390625,5.76019287109375,2.41851806640625
0.0443115234375,-0.886962890625,0.4361572265625,22.7813720703125,6.2713623046875,2.86102294921875
-0.0611572265625,-0.880615234375,0.4185791015625,17.8070068359375,5.462646484375,0.49591064453125
-0.0281982421875,-0.8892822265625,0.447021484375,14.12200927734375,2.08282470703125,5.21087646484375
0.0443115234375,-0.8739013671875,0.416748046875,6.8206787109375,-14.2822265625,6.195068359375
0.1104736328125,-0.884765625,0.375,5.08880615234375,-16.17431640625,6.32476806640625
0.156494140625,-0.8785400390625,0.3870849609375,16.11328125,-7.19451904296875,5.157470703125
0.122314453125,-0.8719482421875,0.4481201171875,21.40045166015625,5.22613525390625,4.20379638671875
0.08447265625,-0.8551025390625,0.5018310546875,12.29095458984375,10.24627685546875,0.90789794921875
0.074951171875,-0.8551025390625,0.5009765625,-5.83648681640625,5.4168701171875,-1.5716552734375
0.073486328125,-0.8646240234375,0.46630859375,-23.88763427734375,0.09918212890625,-3.814697265625
0.08056640625,-0.8785400390625,0.42236328125,-33.36334228515625,-3.6163330078125,-4.6234130859375
0.0872802734375,-0.8905029296875,0.378173828125,-33.0352783203125,-4.1046142578125,-4.09698486328125
0.0826416015625,-0.9002685546875,0.359130859375,-24.2462158203125,-1.2969970703125,-2.960205078125
0.0849609375,-0.89794921875,0.3607177734375,-10.21575927734375,0.335693359375,-1.42669677734375
0.0780029296875,-0.894287109375,0.3792724609375,3.2196044921875,2.0904541015625,0.4425048828125
0.0736083984375,-0.88427734375,0.4139404296875,11.25335693359375,3.936767578125,1.35040283203125
0.068359375,-0.8779296875,0.4365234375,11.57379150390625,3.570556640625,1.65557861328125
0.06689453125,-0.8759765625,0.4454345703125,5.9356689453125,2.5177001953125,0.9918212890625
0.0665283203125,-0.8792724609375,0.4361572265625,-1.5716552734375,1.03759765625,0.152587890625
0.046630859375,-0.882568359375,0.4110107421875,-6.08062744140625,-0.640869140625,-1.0223388671875
0.0755615234375,-0.8914794921875,0.3929443359375,-4.8065185546875,-2.75421142578125,-0.26702880859375
0.0936279296875,-0.89306640625,0.37109375,1.7547607421875,-3.509521484375,1.1138916015625
0.0830078125,-0.8846435546875,0.405029296875,9.0789794921875,6.17218017578125,0.885009765625
0.063232421875,-0.874755859375,0.446533203125,10.498046875,10.528564453125,-0.3204345703125
0.05810546875,-0.87109375,0.4625244140625,3.6773681640625,8.12530517578125,-1.09100341796875
0.06103515625,-0.874267578125,0.44921875,-6.98089599609375,4.02069091796875,-2.15911865234375
0.0694580078125,-0.8795166015625,0.4244384765625,-14.39666748046875,0.5035400390625,-2.716064453125
0.0723876953125,-0.887451171875,0.4012451171875,-15.7623291015625,-0.38909912109375,-2.38037109375
0.0703125,-0.891845703125,0.390869140625,-11.97052001953125,1.18255615234375,-1.8768310546875
0.0728759765625,-0.8897705078125,0.39453125,-5.30242919921875,1.65557861328125,-1.10626220703125
0.0699462890625,-0.88623046875,0.4080810546875,0.823974609375,1.91497802734375,-0.030517578125
0.0675048828125,-0.8812255859375,0.4244384765625,3.22723388671875,2.4871826171875,0.32806396484375
0.0670166015625,-0.88037109375,0.427978515625,1.91497802734375,1.89971923828125,0.274658203125
0.0657958984375,-0.8807373046875,0.42724609375,-0.57220458984375,1.36566162109375,0.1220703125
-0.021240234375,-0.8843994140625,0.3939208984375,-1.434326171875,-0.51116943359375,-1.04522705078125
-0.008544921875,-0.894287109375,0.4058837890625,1.922607421875,-0.67901611328125,2.83050537109375
0.06884765625,-0.897216796875,0.3785400390625,9.6588134765625,-10.13946533203125,4.79888916015625
0.1043701171875,-0.894287109375,0.3740234375,17.51708984375,-3.65447998046875,1.9378662109375
0.116455078125,-0.87451171875,0.4122314453125,26.13067626953125,8.73565673828125,-0.23651123046875
0.0960693359375,-0.859619140625,0.48779296875,26.22222900390625,18.21136474609375,-1.24359130859375
0.068359375,-0.8447265625,0.5341796875,10.26153564453125,17.8070068359375,-3.84521484375
0.062744140625,-0.849365234375,0.5177001953125,-14.27459716796875,9.796142578125,-5.94329833984375
0.066650390625,-0.860107421875,0.469970703125,-35.2935791015625,2.44903564453125,-7.75146484375
0.0760498046875,-0.8779296875,0.416015625,-44.1436767578125,-2.1820068359375,-8.1787109375
0.087158203125,-0.8914794921875,0.3660888671875,-41.595458984375,-3.82232666015625,-6.98089599609375
0.086181640625,-0.9013671875,0.3455810546875,-27.9388427734375,-1.04522705078125,-5.10406494140625
0.0849609375,-0.8995361328125,0.3511962890625,-10.64300537109375,1.556396484375,-2.64739990234375
0.07861328125,-0.89404296875,0.37548828125,4.18853759765625,3.56292724609375,-0.30517578125
0.0723876953125,-0.8853759765625,0.407958984375,13.12255859375,5.11932373046875,1.13677978515625
0.06689453125,-0.878662109375,0.431396484375,14.70184326171875,4.94384765625,1.76239013671875
0.0618896484375,-0.876953125,0.4417724609375,10.7574462890625,3.91387939453125,1.50299072265625
0.050048828125,-0.8748779296875,0.445556640625,4.14276123046875,2.46429443359375,0.63323974609375
0.0245361328125,-0.8724365234375,0.431884765625,0.34332275390625,0.52642822265625,-1.06048583984375
0.0654296875,-0.891357421875,0.38720703125,4.41741943359375,-7.49969482421875,3.22723388671875
0.0989990234375,-0.8831787109375,0.399169921875,10.101318359375,-4.76837158203125,3.143310546875
0.0887451171875,-0.8770751953125,0.4232177734375,13.3819580078125,3.01361083984375,2.410888671875
0.0699462890625,-0.8692626953125,0.4605712890625,11.75689697265625,5.9814453125,1.89971923828125
0.0618896484375,-0.863037109375,0.482421875,1.0528564453125,6.73675537109375,-0.2899169921875
0.0648193359375,-0.8642578125,0.4720458984375,-13.916015625,4.15802001953125,-2.8228759765625
0.0687255859375,-0.8736572265625,0.43701171875,-24.96337890625,-0.09918212890625,-4.0435791015625
0.0753173828125,-0.8883056640625,0.3909912109375,-26.95465087890625,-3.11279296875,-3.4942626953125
0.083984375,-0.8912353515625,0.3726806640625,-20.92742919921875,-0.9307861328125,-3.07464599609375
0.079345703125,-0.8941650390625,0.37060546875,-9.674072265625,1.312255859375,-1.60980224609375
0.0738525390625,-0.8909912109375,0.385986328125,2.0904541015625,2.593994140625,-0.0457763671875
0.0701904296875,-0.8819580078125,0.4154052734375,9.9029541015625,3.692626953125,1.02996826171875
0.06640625,-0.875244140625,0.437744140625,10.9100341796875,3.36456298828125,1.51824951171875
0.06298828125,-0.8726806640625,0.4478759765625,6.2713623046875,2.532958984375,0.98419189453125
0.0633544921875,-0.8760986328125,0.4398193359375,-0.3509521484375,1.09100341796875,0.17547607421875
0.0340576171875,-0.8834228515625,0.4195556640625,-5.3253173828125,0.2593994140625,-0.58746337890625
0.02099609375,-0.8802490234375,0.42333984375,-3.7078857421875,1.12152099609375,-1.3580322265625
0.0806884765625,-0.8936767578125,0.3875732421875,3.77655029296875,-8.12530517578125,3.3721923828125
0.101318359375,-0.880615234375,0.40478515625,8.68988037109375,-4.26483154296875,1.9989013671875
0.09033203125,-0.8726806640625,0.4437255859375,9.10186767578125,5.035400390625,1.54876708984375
0.0703125,-0.8663330078125,0.46923828125,3.204345703125,6.8359375,-0.41961669921875
0.0635986328125,-0.87060546875,0.4635009765625,-7.659912109375,4.3182373046875,-1.7547607421875
0.0703125,-0.875244140625,0.43798828125,-17.303466796875,0.67138671875,-3.021240234375
0.0755615234375,-0.8863525390625,0.401611328125,-20.50018310546875,-1.41143798828125,-2.87628173828125
0.0791015625,-0.8902587890625,0.3846435546875,-16.33453369140625,0.00762939453125,-2.227783203125
0.0755615234375,-0.89208984375,0.384033203125,-7.4920654296875,1.54876708984375,-1.06048583984375
0.0736083984375,-0.8870849609375,0.3985595703125,1.800537109375,2.288818359375,0.12969970703125
0.0679931640625,-0.880859375,0.4207763671875,7.354736328125,3.22723388671875,0.8697509765625
0.063720703125,-0.8741455078125,0.4437255859375,7.31658935546875,3.2958984375,0.86212158203125
0.06396484375,-0.8726806640625,0.4501953125,1.9989013671875,2.105712890625,0.29754638671875
0.0673828125,-0.876220703125,0.435302734375,-4.49371337890625,0.8544921875,-0.49591064453125
0.0672607421875,-0.8822021484375,0.420166015625,-7.75146484375,0.19073486328125,-0.8544921875
