accel_x,accel_y,accel_z,gyro_x,gyro_y,gyro_z
0.355712890625,0.8021240234375,0.6209716796875,-3.0517578125,-50.19378662109375,-4.14276123046875
0.35546875,0.8021240234375,0.6217041015625,-2.8533935546875,-50.30059814453125,-4.1656494140625
0.3558349609375,0.8018798828125,0.6217041015625,-2.5787353515625,-50.36163330078125,-4.20379638671875
0.3555908203125,0.802001953125,0.620849609375,-2.3345947265625,-50.445556640625,-4.24957275390625
0.355224609375,0.8028564453125,0.6195068359375,-2.2125244140625,-50.48370361328125,-4.2724609375
0.3555908203125,0.802490234375,0.618896484375,-2.2125244140625,-50.47607421875,-4.241943359375
0.3553466796875,0.802978515625,0.619384765625,-2.3651123046875,-50.45318603515625,-4.20379638671875
0.354248046875,0.8028564453125,0.62060546875,-2.5787353515625,-50.4150390625,-4.21142578125
0.35498046875,0.802490234375,0.6202392578125,-2.76947021484375,-50.3387451171875,-4.21142578125
0.35498046875,0.8017578125,0.6201171875,-2.81524658203125,-50.262451171875,-4.21142578125
0.35498046875,0.8018798828125,0.6204833984375,-2.70843505859375,-50.25482177734375,-4.20379638671875
0.3548583984375,0.8017578125,0.6201171875,-2.5177001953125,-50.3082275390625,-4.17327880859375
0.3553466796875,0.8023681640625,0.6197509765625,-2.34222412109375,-50.445556640625,-4.15802001953125
0.355712890625,0.802978515625,0.61865234375,-2.2125244140625,-50.567626953125,-4.18853759765625
0.35595703125,0.8033447265625,0.6180419921875,-2.20489501953125,-50.59814453125,-4.21905517578125
0.3553466796875,0.8035888671875,0.617919921875,-2.3040771484375,-50.5523681640625,-4.2266845703125
0.35546875,0.8033447265625,0.618408203125,-2.46429443359375,-50.445556640625,-4.21142578125
0.35546875,0.8033447265625,0.6190185546875,-2.64739990234375,-50.323486328125,-4.21142578125
0.3548583984375,0.8028564453125,0.619873046875,-2.81524658203125,-50.2471923828125,-4.23431396484375
0.3551025390625,0.8028564453125,0.6202392578125,-2.9449462890625,-50.20904541015625,-4.241943359375
0.355224609375,0.80224609375,0.6202392578125,-2.9754638671875,-50.2471923828125,-4.180908203125
0.356689453125,0.8023681640625,0.6204833984375,-2.8839111328125,-50.31585693359375,-4.15802001953125
0.3560791015625,0.802490234375,0.6199951171875,-2.70843505859375,-50.3692626953125,-4.17327880859375
0.3564453125,0.80224609375,0.6201171875,-2.47955322265625,-50.37689208984375,-4.21905517578125
0.3560791015625,0.8026123046875,0.618896484375,-2.31170654296875,-50.37689208984375,-4.23431396484375
0.356201171875,0.8026123046875,0.6187744140625,-2.28118896484375,-50.3692626953125,-4.20379638671875
0.3560791015625,0.8031005859375,0.6187744140625,-2.40325927734375,-50.35400390625,-4.180908203125
0.356201171875,0.802490234375,0.6180419921875,-2.5787353515625,-50.35400390625,-4.180908203125
0.35595703125,0.8023681640625,0.6195068359375,-2.73895263671875,-50.35400390625,-4.1961669921875
0.3555908203125,0.802490234375,0.619140625,-2.81524658203125,-50.34637451171875,-4.2266845703125
0.3558349609375,0.802734375,0.6199951171875,-2.76947021484375,-50.3082275390625,-4.21905517578125
0.3558349609375,0.8023681640625,0.6197509765625,-2.64739990234375,-50.3387451171875,-4.2266845703125
0.3558349609375,0.8021240234375,0.61962890625,-2.4871826171875,-50.384521484375,-4.2572021484375
0.35595703125,0.8023681640625,0.61962890625,-2.3345947265625,-50.43792724609375,-4.2724609375
0.356201171875,0.802490234375,0.6187744140625,-2.22015380859375,-50.4913330078125,-4.2724609375
0.3558349609375,0.8028564453125,0.6177978515625,-2.22015380859375,-50.49896240234375,-4.26483154296875
0.3565673828125,0.8031005859375,0.6173095703125,-2.3193359375,-50.445556640625,-4.20379638671875
0.35595703125,0.80322265625,0.6175537109375,-2.5177001953125,-50.39215087890625,-4.1656494140625
0.3560791015625,0.80322265625,0.6171875,-2.777099609375,-50.3387451171875,-4.1656494140625
0.35595703125,0.8028564453125,0.6192626953125,-2.9296875,-50.22430419921875,-4.15802001953125
0.3560791015625,0.802001953125,0.619140625,-3.01361083984375,-50.2471923828125,-4.1961669921875
0.3558349609375,0.8018798828125,0.620849609375,-2.899169921875,-50.2166748046875,-4.18853759765625
0.3558349609375,0.8016357421875,0.6207275390625,-2.72369384765625,-50.29296875,-4.180908203125
0.3553466796875,0.801513671875,0.6199951171875,-2.55584716796875,-50.37689208984375,-4.180908203125
0.3555908203125,0.8017578125,0.619873046875,-2.43377685546875,-50.43792724609375,-4.1351318359375
0.355224609375,0.802490234375,0.61962890625,-2.410888671875,-50.46844482421875,-4.1351318359375
0.35595703125,0.802978515625,0.6192626953125,-2.47955322265625,-50.48370361328125,-4.08935546875
0.3553466796875,0.802734375,0.6195068359375,-2.5177001953125,-50.30059814453125,-3.9825439453125
0.355712890625,0.80224609375,0.619384765625,-2.64739990234375,-50.19378662109375,-3.97491455078125
0.35546875,0.8023681640625,0.619384765625,-2.76947021484375,-50.20904541015625,-4.08935546875
0.3553466796875,0.8026123046875,0.619384765625,-2.8076171875,-50.2777099609375,-4.180908203125
0.355224609375,0.802001953125,0.619873046875,-2.7313232421875,-50.3692626953125,-4.23431396484375
0.3558349609375,0.802001953125,0.619384765625,-2.5177001953125,-50.3997802734375,-4.150390625
0.355712890625,0.802734375,0.619384765625,-2.3193359375,-50.42266845703125,-4.09698486328125
0.3560791015625,0.80224609375,0.618896484375,-2.23541259765625,-50.47607421875,-4.1351318359375
0.355712890625,0.802978515625,0.619140625,-2.288818359375,-50.46844482421875,-4.2266845703125
0.35546875,0.802978515625,0.6197509765625,-2.4566650390625,-50.45318603515625,-4.2724609375
0.3548583984375,0.8028564453125,0.61865234375,-2.64739990234375,-50.4150390625,-4.2572021484375
0.35498046875,0.8021240234375,0.6197509765625,-2.76947021484375,-50.29296875,-4.18853759765625
0.35546875,0.801513671875,0.6201171875,-2.81524658203125,-50.2471923828125,-4.150390625
0.35595703125,0.8017578125,0.6212158203125,-2.76947021484375,-50.31585693359375,-4.15802001953125
0.3560791015625,0.8021240234375,0.6204833984375,-2.6702880859375,-50.3997802734375,-4.21142578125
0.3560791015625,0.802001953125,0.6201171875,-2.51007080078125,-50.4608154296875,-4.23431396484375
0.355712890625,0.80224609375,0.619873046875,-2.31170654296875,-50.506591796875,-4.20379638671875
0.3280029296875,0.8221435546875,0.634033203125,-2.72369384765625,-51.23138427734375,-4.00543212890625
0.3203125,0.8338623046875,0.6177978515625,-14.22119140625,-64.1326904296875,-3.35693359375
0.3355712890625,0.822265625,0.616455078125,-29.998779296875,-78.52935791015625,0.091552734375
0.3497314453125,0.8101806640625,0.6204833984375,-42.724609375,-89.05029296875,2.90679931640625
0.405029296875,0.7669677734375,0.60693359375,-52.1392822265625,-97.2747802734375,2.78472900390625
0.4234619140625,0.7567138671875,0.60595703125,-54.61883544921875,-97.14508056640625,-8.4228515625
0.4033203125,0.7630615234375,0.633056640625,-52.6123046875,-89.16473388671875,-16.53289794921875
0.3914794921875,0.7645263671875,0.6514892578125,-46.92840576171875,-83.343505859375,-19.41680908203125
0.3887939453125,0.7618408203125,0.661376953125,-36.59820556640625,-77.545166015625,-17.98248291015625
0.38671875,0.7633056640625,0.6630859375,-23.47564697265625,-71.66290283203125,-14.80865478515625
0.397216796875,0.760498046875,0.64990234375,-10.8642578125,-66.162109375,-11.25335693359375
0.396240234375,0.7666015625,0.6392822265625,-1.21307373046875,-60.44769287109375,-9.86480712890625
0.3902587890625,0.7811279296875,0.6168212890625,7.537841796875,-51.9561767578125,-6.378173828125
0.3909912109375,0.7803955078125,0.630126953125,20.08819580078125,-36.0260009765625,4.302978515625
0.43896484375,0.77392578125,0.5958251953125,20.5841064453125,-32.2418212890625,9.89532470703125
0.4383544921875,0.790283203125,0.5875244140625,21.38519287109375,-26.46636962890625,13.34381103515625
0.4066162109375,0.835205078125,0.57080078125,28.00750732421875,-23.284912109375,16.357421875
0.4053955078125,0.8897705078125,0.51318359375,50.37689208984375,-23.35357666015625,21.78192138671875
0.418212890625,0.9237060546875,0.4100341796875,100.8758544921875,-21.44622802734375,30.92193603515625
0.43408203125,0.9176025390625,0.28076171875,156.463623046875,-11.6119384765625,38.4674072265625
0.47705078125,0.878662109375,0.206787109375,186.34796142578125,12.420654296875,26.611328125
0.477294921875,0.8590087890625,0.19970703125,199.21875,46.32568359375,-12.0697021484375
0.3675537109375,0.9981689453125,0.3089599609375,218.00994873046875,78.11737060546875,-74.493408203125
0.1710205078125,1.240478515625,0.472900390625,220.703125,101.26495361328125,-142.79937744140625
-0.0438232421875,1.51708984375,0.6209716796875,218.4600830078125,108.1695556640625,-200.06561279296875
-0.145263671875,1.8270263671875,0.72314453125,236.7706298828125,92.7886962890625,-236.114501953125
-0.2125244140625,1.99993896484375,0.7353515625,249.0386962890625,57.97576904296875,-246.4447021484375
-0.2435302734375,1.99993896484375,0.655517578125,241.34063720703125,16.25823974609375,-228.66058349609375
-0.2479248046875,1.99993896484375,0.5023193359375,217.43011474609375,-22.674560546875,-183.15887451171875
-0.2059326171875,1.99993896484375,0.352294921875,188.78936767578125,-47.27935791015625,-104.43115234375
-0.201416015625,1.99993896484375,0.229248046875,142.49420166015625,-53.15399169921875,21.4691162109375
-0.3060302734375,1.99993896484375,0.1258544921875,103.6224365234375,-51.6357421875,171.7529296875
-0.44677734375,1.99993896484375,0.0762939453125,98.41156005859375,-43.5028076171875,249.99237060546875
-0.6048583984375,1.5596923828125,0.100830078125,103.271484375,-23.5748291015625,249.99237060546875
-0.742919921875,0.914794921875,0.200439453125,107.70416259765625,2.64739990234375,249.99237060546875
-0.85693359375,0.2410888671875,0.34423828125,110.870361328125,23.76556396484375,249.99237060546875
-0.96728515625,-0.4530029296875,0.497314453125,111.602783203125,35.46142578125,249.99237060546875
-1.0601806640625,-1.1551513671875,0.66064453125,117.65289306640625,38.62762451171875,249.99237060546875
-1.0948486328125,-1.83056640625,0.8328857421875,126.86920166015625,31.2347412109375,249.99237060546875
-1.077392578125,-2.0,0.994140625,126.922607421875,15.045166015625,249.99237060546875
-1.08203125,-2.0,1.0870361328125,112.1063232421875,-8.544921875,249.99237060546875
-1.0623779296875,-2.0,1.056396484375,73.2574462890625,-33.94317626953125,106.01806640625
-0.956787109375,-1.988037109375,0.9193115234375,22.25494384765625,-55.15289306640625,-102.88238525390625
-0.865234375,-1.1741943359375,0.729736328125,-22.98736572265625,-75.714111328125,-250.0
-0.919677734375,-0.174560546875,0.528564453125,-49.38507080078125,-95.794677734375,-250.0
-1.016357421875,0.935302734375,0.360107421875,-56.09893798828125,-103.4698486328125,-250.0
-1.0462646484375,1.99993896484375,0.2208251953125,-69.427490234375,-101.03607177734375,-250.0
-0.9605712890625,1.99993896484375,0.1025390625,-90.75164794921875,-92.76580810546875,-250.0
-0.7900390625,1.99993896484375,0.009521484375,-93.68133544921875,-83.404541015625,-250.0
-0.5772705078125,1.99993896484375,-0.0504150390625,-67.0166015625,-73.63128662109375,-250.0
-0.4429931640625,1.99993896484375,-0.0662841796875,-17.4102783203125,-61.5234375,-250.0
-0.4439697265625,1.99993896484375,-0.0401611328125,33.50830078125,-45.24993896484375,-176.727294921875
-0.5174560546875,1.99993896484375,0.03955078125,69.77081298828125,-25.1617431640625,18.585205078125
-0.5311279296875,1.99993896484375,0.15673828125,83.9691162109375,-6.69097900390625,156.6162109375
-0.4530029296875,1.99993896484375,0.2884521484375,78.9947509765625,4.852294921875,234.90142822265625
-0.3287353515625,1.79638671875,0.3719482421875,49.6978759765625,4.35638427734375,249.99237060546875
-0.3438720703125,1.5042724609375,0.3780517578125,3.448486328125,-4.5013427734375,249.99237060546875
-0.3521728515625,1.2264404296875,0.3721923828125,-33.11920166015625,-11.871337890625,249.99237060546875
-0.3231201171875,0.892333984375,0.4049072265625,-35.56060791015625,-20.05767822265625,249.99237060546875
-0.310546875,0.4862060546875,0.445068359375,-28.08380126953125,-31.12030029296875,249.99237060546875
-0.3052978515625,0.01123046875,0.4766845703125,-15.28167724609375,-45.745849609375,249.99237060546875
-0.3251953125,-0.523681640625,0.4893798828125,3.77655029296875,-63.22479248046875,249.99237060546875
-0.3895263671875,-1.0616455078125,0.4876708984375,21.7742919921875,-78.89556884765625,249.99237060546875
-0.469970703125,-1.5826416015625,0.468994140625,32.87506103515625,-90.53802490234375,249.99237060546875
-0.552490234375,-2.0,0.4326171875,38.970947265625,-98.19793701171875,249.99237060546875
-0.617431640625,-2.0,0.3824462890625,37.46795654296875,-99.76959228515625,215.667724609375
-0.6595458984375,-2.0,0.3182373046875,20.7977294921875,-93.68133544921875,64.2852783203125
-0.6904296875,-1.764404296875,0.2301025390625,-20.263671875,-80.68084716796875,-115.1580810546875
-0.75341796875,-0.920654296875,0.1175537109375,-66.52069091796875,-67.14630126953125,-250.0
-0.935302734375,0.17041015625,0.0228271484375,-105.44586181640625,-44.9981689453125,-250.0
-1.146240234375,1.3804931640625,0.036865234375,-139.068603515625,-4.44793701171875,-250.0
-1.244140625,1.99993896484375,0.1888427734375,-166.60308837890625,45.7000732421875,-250.0
-1.23388671875,1.99993896484375,0.457275390625,-176.7730712890625,84.0301513671875,-250.0
-1.1160888671875,1.99993896484375,0.7611083984375,-169.5098876953125,95.245361328125,-250.0
-0.947509765625,1.99993896484375,1.00048828125,-129.119873046875,71.3348388671875,-250.0
-0.8624267578125,1.99993896484375,1.0245361328125,-75.12664794921875,17.7154541015625,-250.0
-0.8709716796875,1.99993896484375,0.8514404296875,-11.29913330078125,-45.196533203125,-75.69122314453125
-0.88525390625,1.99993896484375,0.63623046875,44.219970703125,-90.32440185546875,118.23272705078125
-0.8685302734375,1.99993896484375,0.4593505859375,72.05963134765625,-110.3057861328125,249.99237060546875
-0.825439453125,1.893798828125,0.3385009765625,79.498291015625,-112.4267578125,249.99237060546875
-0.7374267578125,1.2081298828125,0.2862548828125,73.7762451171875,-100.47149658203125,249.99237060546875
-0.648681640625,0.62548828125,0.2908935546875,60.150146484375,-84.8541259765625,249.99237060546875
-0.5435791015625,0.121826171875,0.33203125,48.6297607421875,-74.249267578125,249.99237060546875
-0.42822265625,-0.3270263671875,0.38623046875,43.78509521484375,-71.7315673828125,249.99237060546875
-0.318115234375,-0.728759765625,0.408935546875,36.7889404296875,-78.95660400390625,249.99237060546875
-0.2418212890625,-1.0877685546875,0.36572265625,26.458740234375,-93.14727783203125,249.99237060546875
-0.2109375,-1.4090576171875,0.263427734375,21.61407470703125,-108.68072509765625,238.5711669921875
-0.2095947265625,-1.6695556640625,0.14111328125,20.843505859375,-115.68450927734375,188.5528564453125
-0.234375,-1.8184814453125,0.0238037109375,12.32147216796875,-107.21588134765625,116.96624755859375
-0.2879638671875,-1.70654296875,-0.053955078125,-4.730224609375,-84.55657958984375,15.533447265625
-0.320556640625,-1.2720947265625,-0.04345703125,-26.611328125,-49.38507080078125,-105.52215576171875
-0.3704833984375,-0.61279296875,0.0264892578125,-48.736572265625,-11.688232421875,-224.23553466796875
-0.46630859375,0.1751708984375,0.1214599609375,-73.8983154296875,22.23968505859375,-250.0
-0.6434326171875,1.0814208984375,0.250732421875,-97.41973876953125,49.9725341796875,-250.0
-0.8193359375,1.99993896484375,0.4556884765625,-116.87469482421875,75.55389404296875,-250.0
-0.8935546875,1.99993896484375,0.721435546875,-127.05230712890625,91.22467041015625,-250.0
-0.8790283203125,1.99993896484375,0.979736328125,-119.5526123046875,83.97674560546875,-250.0
-0.7908935546875,1.99993896484375,1.140625,-95.11566162109375,50.63629150390625,-250.0
-0.7076416015625,1.99993896484375,1.12255859375,-49.53765869140625,-2.02178955078125,-250.0
-0.7176513671875,1.99993896484375,0.95654296875,7.77435302734375,-57.42645263671875,-71.502685546875
-0.7635498046875,1.99993896484375,0.77099609375,61.34796142578125,-97.412109375,105.15594482421875
-0.7694091796875,1.99993896484375,0.640869140625,92.71240234375,-115.19622802734375,242.28668212890625
-0.7325439453125,1.9139404296875,0.56591796875,97.8546142578125,-118.08013916015625,249.99237060546875
-0.6707763671875,1.2037353515625,0.52587890625,88.26446533203125,-114.68505859375,249.99237060546875
-0.60546875,0.5792236328125,0.5006103515625,67.63458251953125,-109.68780517578125,249.99237060546875
-0.521728515625,0.028076171875,0.4844970703125,49.98016357421875,-107.2845458984375,249.99237060546875
-0.4345703125,-0.465576171875,0.47021484375,43.90716552734375,-111.297607421875,249.99237060546875
-0.3692626953125,-0.9307861328125,0.4281005859375,43.52569580078125,-121.87957763671875,249.99237060546875
-0.3541259765625,-1.3592529296875,0.3486328125,43.3197021484375,-135.223388671875,249.99237060546875
-0.3555908203125,-1.73193359375,0.23291015625,35.247802734375,-144.8211669921875,249.99237060546875
-0.36865234375,-2.0,0.0888671875,24.28436279296875,-147.01080322265625,221.10748291015625
-0.3890380859375,-2.0,-0.077392578125,9.3231201171875,-136.83319091796875,124.4659423828125
-0.408935546875,-1.8123779296875,-0.2032470703125,-13.6566162109375,-109.12322998046875,-9.02557373046875
-0.4688720703125,-1.186767578125,-0.249755859375,-47.20306396484375,-66.5283203125,-159.7747802734375
-0.62060546875,-0.3524169921875,-0.2098388671875,-80.291748046875,-16.4947509765625,-250.0
-0.869384765625,0.63671875,-0.0821533203125,-102.30255126953125,34.97314453125,-250.0
-1.1619873046875,1.7349853515625,0.1563720703125,-122.589111328125,84.93804931640625,-250.0
-1.32470703125,1.99993896484375,0.493408203125,-141.71600341796875,122.55859375,-250.0
-1.326904296875,1.99993896484375,0.865234375,-143.798828125,131.77490234375,-250.0
-1.1722412109375,1.99993896484375,1.155029296875,-130.63812255859375,104.31671142578125,-250.0
-0.9876708984375,1.99993896484375,1.216796875,-89.10369873046875,41.31317138671875,-250.0
-0.9461669921875,1.99993896484375,1.024658203125,-25.42877197265625,-36.4532470703125,-191.65802001953125
-0.984130859375,1.99993896484375,0.76708984375,43.51043701171875,-97.23663330078125,32.3638916015625
-1.0079345703125,1.99993896484375,0.5826416015625,94.35272216796875,-124.5574951171875,222.16796875
-0.9949951171875,1.99993896484375,0.48681640625,114.56298828125,-127.66265869140625,249.99237060546875
-0.9449462890625,1.3487548828125,0.470458984375,118.93463134765625,-119.31610107421875,249.99237060546875
-0.867919921875,0.5533447265625,0.502685546875,107.23114013671875,-107.47528076171875,249.99237060546875
-0.76318359375,-0.1658935546875,0.546875,91.8731689453125,-101.654052734375,249.99237060546875
-0.6810302734375,-0.7957763671875,0.5692138671875,83.2977294921875,-106.6131591796875,249.99237060546875
-0.62451171875,-1.329833984375,0.539306640625,71.3043212890625,-118.38531494140625,249.99237060546875
-0.5963134765625,-1.769775390625,0.4464111328125,52.8717041015625,-131.12640380859375,249.99237060546875
-0.5606689453125,-2.0,0.299560546875,34.91973876953125,-139.21356201171875,249.99237060546875
-0.538330078125,-2.0,0.09423828125,10.3302001953125,-135.97869873046875,162.91046142578125
-0.5157470703125,-1.7513427734375,-0.088623046875,-25.9246826171875,-112.46490478515625,11.322021484375
-0.5318603515625,-1.0943603515625,-0.17626953125,-64.8345947265625,-70.16754150390625,-144.72198486328125
-0.600830078125,-0.3070068359375,-0.1494140625,-96.923828125,-16.7388916015625,-250.0
-0.7364501953125,0.5450439453125,-0.0245361328125,-114.7003173828125,37.4603271484375,-250.0
-0.9525146484375,1.4493408203125,0.1851806640625,-125.28228759765625,83.59527587890625,-250.0
-1.1312255859375,1.99993896484375,0.4705810546875,-140.0909423828125,117.3858642578125,-250.0
-1.201171875,1.99993896484375,0.79150390625,-141.5863037109375,129.18853759765625,-250.0
-1.1177978515625,1.99993896484375,1.07470703125,-130.2947998046875,110.41259765625,-250.0
-0.9395751953125,1.99993896484375,1.2098388671875,-102.40936279296875,59.70001220703125,-250.0
-0.822021484375,1.99993896484375,1.099853515625,-53.35235595703125,-12.99285888671875,-250.0
-0.8360595703125,1.99993896484375,0.845458984375,11.5966796875,-82.00836181640625,-49.43084716796875
-0.8653564453125,1.99993896484375,0.605712890625,74.76043701171875,-124.12261962890625,144.3023681640625
-0.856201171875,1.99993896484375,0.4609375,117.21038818359375,-137.176513671875,249.99237060546875
-0.8211669921875,1.68408203125,0.411865234375,135.31494140625,-131.591796875,249.99237060546875
-0.7554931640625,0.88671875,0.430908203125,130.0506591796875,-117.42401123046875,249.99237060546875
-0.6895751953125,0.1611328125,0.4818115234375,110.95428466796875,-104.949951171875,249.99237060546875
-0.6153564453125,-0.49609375,0.53857421875,92.18597412109375,-98.2818603515625,249.99237060546875
-0.55859375,-1.07080078125,0.572021484375,73.7762451171875,-99.700927734375,249.99237060546875
-0.544677734375,-1.5592041015625,0.5545654296875,54.32891845703125,-107.0709228515625,249.99237060546875
-0.52783203125,-1.9517822265625,0.4912109375,35.6597900390625,-112.99896240234375,249.99237060546875
-0.5262451171875,-2.0,0.388916015625,19.53125,-113.25836181640625,231.5521240234375
-0.5250244140625,-2.0,0.275390625,0.29754638671875,-103.90472412109375,96.71783447265625
-0.531982421875,-1.636962890625,0.2060546875,-25.604248046875,-81.97784423828125,-54.74853515625
-0.58349609375,-0.995361328125,0.1888427734375,-49.24774169921875,-53.985595703125,-199.1119384765625
-0.6671142578125,-0.2425537109375,0.2139892578125,-60.96649169921875,-28.63311767578125,-250.0
-0.8341064453125,0.5906982421875,0.259765625,-68.61114501953125,-9.43756103515625,-250.0
-1.03955078125,1.4736328125,0.330322265625,-84.89227294921875,7.476806640625,-250.0
-1.1705322265625,1.99993896484375,0.4373779296875,-107.09381103515625,20.53070068359375,-250.0
-1.18310546875,1.99993896484375,0.55419921875,-115.692138671875,19.81353759765625,-250.0
-1.064453125,1.99993896484375,0.6278076171875,-107.2998046875,-0.03814697265625,-250.0
-0.889404296875,1.99993896484375,0.5877685546875,-78.4759521484375,-37.17041015625,-250.0
-0.7772216796875,1.99993896484375,0.4146728515625,-20.7366943359375,-82.51953125,-250.0
-0.717041015625,1.99993896484375,0.2069091796875,49.11041259765625,-116.9891357421875,-88.81378173828125
-0.6839599609375,1.99993896484375,0.0682373046875,108.88671875,-128.02886962890625,87.615966796875
-0.6494140625,1.99993896484375,0.0234375,139.07623291015625,-119.65179443359375,226.47857666015625
-0.5865478515625,1.7041015625,0.047119140625,144.64569091796875,-102.48565673828125,249.99237060546875
-0.5029296875,1.0574951171875,0.109130859375,135.2386474609375,-84.93804931640625,249.99237060546875
-0.3892822265625,0.4957275390625,0.1907958984375,116.729736328125,-69.70977783203125,249.99237060546875
-0.27783203125,0.013916015625,0.277099609375,94.76470947265625,-58.77685546875,249.99237060546875
-0.185546875,-0.4173583984375,0.34521484375,69.976806640625,-54.01611328125,249.99237060546875
-0.1258544921875,-0.7991943359375,0.385498046875,49.4842529296875,-53.314208984375,249.99237060546875
-0.10498046875,-1.11376953125,0.40771484375,32.1502685546875,-51.39923095703125,249.99237060546875
-0.1094970703125,-1.324951171875,0.42138671875,17.3492431640625,-44.677734375,195.51849365234375
-0.15869140625,-1.3074951171875,0.437255859375,5.126953125,-34.58404541015625,94.07806396484375
-0.210693359375,-0.9810791015625,0.464111328125,-14.44244384765625,-19.78302001953125,-31.80694580078125
-0.2984619140625,-0.444580078125,0.504150390625,-40.51971435546875,-2.62451171875,-161.8499755859375
-0.409912109375,0.200927734375,0.5487060546875,-63.13323974609375,11.8560791015625,-250.0
-0.5042724609375,0.8663330078125,0.606201171875,-86.212158203125,23.04840087890625,-250.0
-0.5548095703125,1.50341796875,0.681396484375,-108.4747314453125,28.43475341796875,-250.0
-0.112060546875,1.99993896484375,0.9615478515625,-50.0335693359375,19.50836181640625,-250.0
-0.340576171875,1.99993896484375,0.8631591796875,-6.26373291015625,-37.04071044921875,-184.5550537109375
-0.34326171875,1.5906982421875,0.6995849609375,-43.44940185546875,-71.89178466796875,-78.8116455078125
-0.30419921875,1.302490234375,0.5206298828125,5.7830810546875,-111.45782470703125,-21.9879150390625
-0.267822265625,1.0830078125,0.3094482421875,13.31329345703125,-139.83154296875,0.31280517578125
-0.2261962890625,0.9461669921875,0.0863037109375,0.1373291015625,-153.17535400390625,-0.02288818359375
-0.1846923828125,0.89599609375,-0.1123046875,3.47900390625,-155.487060546875,-11.322021484375
-0.13427734375,0.8671875,-0.258544921875,2.63214111328125,-143.73779296875,-22.88055419921875
-0.0880126953125,0.82666015625,-0.33349609375,2.29644775390625,-122.4212646484375,-30.86090087890625
-0.048095703125,0.770263671875,-0.3385009765625,4.547119140625,-96.21429443359375,-36.2091064453125
0.0491943359375,1.4837646484375,-0.0828857421875,5.65338134765625,-71.0296630859375,-34.9884033203125
0.108642578125,1.166015625,-0.0621337890625,18.02825927734375,-56.5032958984375,13.67950439453125
0.0584716796875,1.205810546875,-0.0028076171875,14.06097412109375,-53.47442626953125,50.83465576171875
0.104736328125,1.2879638671875,0.102783203125,20.74432373046875,-42.32025146484375,82.763671875
0.0814208984375,1.22705078125,0.14013671875,27.83203125,-46.630859375,118.1640625
0.0609130859375,1.1744384765625,0.1612548828125,15.31982421875,-45.72296142578125,139.801025390625
0.0853271484375,1.130615234375,0.17333984375,-28.106689453125,-38.9556884765625,145.10345458984375
0.104248046875,1.0909423828125,0.18896484375,-95.5810546875,-31.25,137.24517822265625
0.0980224609375,1.0343017578125,0.20556640625,-164.8406982421875,-27.10723876953125,125.45013427734375
0.0672607421875,0.997802734375,0.226318359375,-204.12445068359375,-30.73883056640625,109.39788818359375
0.0450439453125,0.97607421875,0.2718505859375,-203.01055908203125,-39.16168212890625,87.0208740234375
0.092041015625,0.95458984375,0.3370361328125,-186.4013671875,-48.980712890625,61.65313720703125
0.147705078125,0.9207763671875,0.40478515625,-169.0673828125,-60.18829345703125,37.91046142578125
0.1702880859375,0.9091796875,0.4564208984375,-149.7802734375,-73.638916015625,13.275146484375
0.1693115234375,0.913818359375,0.4932861328125,-128.51715087890625,-88.31787109375,-7.19451904296875
0.172607421875,0.91552734375,0.51513671875,-105.44586181640625,-102.56195068359375,-19.500732421875
0.1806640625,0.916748046875,0.5223388671875,-80.4595947265625,-114.593505859375,-25.21514892578125
0.183837890625,0.92431640625,0.513427734375,-55.70220947265625,-123.809814453125,-26.60369873046875
0.1983642578125,0.930908203125,0.484619140625,-34.24835205078125,-130.7373046875,-25.29144287109375
0.20751953125,0.9427490234375,0.45361328125,-18.66912841796875,-134.46044921875,-22.88818359375
0.22509765625,0.9520263671875,0.4146728515625,-12.16888427734375,-136.4593505859375,-19.8211669921875
0.2474365234375,0.9530029296875,0.3834228515625,-13.28277587890625,-134.63592529296875,-16.5863037109375
0.260498046875,0.956298828125,0.362060546875,-20.86639404296875,-129.61578369140625,-15.46478271484375
0.2791748046875,0.94921875,0.3536376953125,-32.43255615234375,-121.80328369140625,-15.533447265625
0.2821044921875,0.9459228515625,0.36328125,-45.3338623046875,-112.2589111328125,-17.73834228515625
0.27783203125,0.9434814453125,0.3812255859375,-57.48748779296875,-103.20281982421875,-19.4854736328125
0.277099609375,0.9332275390625,0.4093017578125,-66.21551513671875,-94.6044921875,-19.134521484375
0.2752685546875,0.92236328125,0.4404296875,-68.91632080078125,-85.75439453125,-18.06640625
0.2740478515625,0.912109375,0.4681396484375,-65.8721923828125,-78.2623291015625,-16.7694091796875
0.27197265625,0.9053955078125,0.4893798828125,-57.96051025390625,-71.47216796875,-14.83917236328125
0.2603759765625,0.9052734375,0.5130615234375,-47.30224609375,-66.64276123046875,-12.8173828125
0.2608642578125,0.904541015625,0.51416015625,-37.3687744140625,-66.7572021484375,-10.73455810546875
0.271484375,0.895751953125,0.5135498046875,-25.87127685546875,-65.31524658203125,-7.59124755859375
0.277099609375,0.8948974609375,0.5059814453125,-13.58795166015625,-61.82861328125,-5.950927734375
0.2769775390625,0.901123046875,0.4945068359375,-3.448486328125,-57.83843994140625,-5.54656982421875
0.278076171875,0.9068603515625,0.47998046875,2.1209716796875,-54.75616455078125,-5.59234619140625
0.2777099609375,0.91064453125,0.470947265625,3.448486328125,-51.71966552734375,-5.92803955078125
0.27294921875,0.9154052734375,0.46728515625,1.0833740234375,-49.530029296875,-6.591796875
0.269287109375,0.91796875,0.46826171875,-3.5858154296875,-48.36273193359375,-6.75201416015625
0.265625,0.9173583984375,0.4757080078125,-8.4381103515625,-47.72186279296875,-6.04248046875
0.2640380859375,0.9136962890625,0.4864501953125,-11.8560791015625,-47.79052734375,-4.85992431640625
0.2650146484375,0.9091796875,0.4967041015625,-12.79449462890625,-48.2940673828125,-3.631591796875
0.2672119140625,0.904052734375,0.5040283203125,-11.16180419921875,-49.0570068359375,-2.78472900390625
0.26904296875,0.9007568359375,0.5067138671875,-7.720947265625,-50.0030517578125,-2.685546875
0.2705078125,0.9007568359375,0.503662109375,-3.57818603515625,-50.9033203125,-3.25775146484375
0.2716064453125,0.9031982421875,0.4974365234375,0.091552734375,-51.4678955078125,-4.09698486328125
0.27099609375,0.9075927734375,0.48876953125,2.3040771484375,-51.666259765625,-4.8065185546875
0.2696533203125,0.911865234375,0.4818115234375,2.55584716796875,-51.483154296875,-5.06591796875
0.2689208984375,0.9149169921875,0.4776611328125,0.90789794921875,-51.01776123046875,-4.8065185546875
0.268798828125,0.9141845703125,0.47802734375,-2.00653076171875,-50.4302978515625,-4.3182373046875
0.2691650390625,0.91259765625,0.48193359375,-5.2490234375,-49.9267578125,-3.85284423828125
0.2701416015625,0.9091796875,0.488525390625,-7.8125,-49.53765869140625,-3.6163330078125
0.27001953125,0.906005859375,0.495849609375,-8.9263916015625,-49.36981201171875,-3.65447998046875
0.2696533203125,0.9031982421875,0.501953125,-8.331298828125,-49.38507080078125,-3.82232666015625
0.268798828125,0.9013671875,0.505859375,-6.2713623046875,-49.530029296875,-4.0130615234375
0.2684326171875,0.9012451171875,0.5067138671875,-3.4637451171875,-49.88861083984375,-4.15802001953125
0.26806640625,0.90283203125,0.504150390625,-0.7781982421875,-50.384521484375,-4.21142578125
0.26806640625,0.9052734375,0.498779296875,0.9765625,-50.933837890625,-4.241943359375
0.2685546875,0.907958984375,0.4915771484375,1.3885498046875,-51.33056640625,-4.20379638671875
0.2694091796875,0.9102783203125,0.4874267578125,0.49591064453125,-51.4373779296875,-4.119873046875
0.2696533203125,0.9112548828125,0.484375,-1.27410888671875,-51.1932373046875,-4.02069091796875
0.2705078125,0.9107666015625,0.484619140625,-3.2806396484375,-50.628662109375,-3.92913818359375
0.270263671875,0.9095458984375,0.48828125,-4.81414794921875,-49.9725341796875,-3.92913818359375
0.270263671875,0.908203125,0.49267578125,-5.462646484375,-49.49188232421875,-3.97491455078125
0.26953125,0.9073486328125,0.495361328125,-5.13458251953125,-49.3011474609375,-4.08935546875
0.2691650390625,0.9066162109375,0.4979248046875,-4.058837890625,-49.52239990234375,-4.21905517578125
0.267822265625,0.9071044921875,0.4979248046875,-2.6397705078125,-50.05645751953125,-4.2877197265625
0.267333984375,0.90771484375,0.4949951171875,-1.4190673828125,-50.6744384765625,-4.2724609375
0.2684326171875,0.907958984375,0.4915771484375,-0.77056884765625,-51.1627197265625,-4.1656494140625
0.26904296875,0.9095458984375,0.4881591796875,-0.89263916015625,-51.2542724609375,-4.14276123046875
0.2686767578125,0.91064453125,0.486572265625,-1.89208984375,-51.1322021484375,-4.09698486328125
0.268798828125,0.910400390625,0.48779296875,-3.47900390625,-51.07879638671875,-3.814697265625
0.273193359375,0.9053955078125,0.4921875,-4.73785400390625,-50.89569091796875,-3.48663330078125
0.2734375,0.9031982421875,0.49853515625,-4.63104248046875,-50.3082275390625,-3.95965576171875
0.273681640625,0.9012451171875,0.5009765625,-3.4027099609375,-49.78179931640625,-4.53948974609375
0.2679443359375,0.906494140625,0.4979248046875,-1.45721435546875,-48.89678955078125,-4.7607421875
0.2635498046875,0.9112548828125,0.4951171875,0.4119873046875,-47.29461669921875,-3.41033935546875
0.2650146484375,0.9117431640625,0.491943359375,0.5035400390625,-46.56219482421875,-1.15203857421875
0.2724609375,0.9080810546875,0.4896240234375,-1.36566162109375,-47.271728515625,0.17547607421875
0.2711181640625,0.9105224609375,0.4844970703125,-4.18853759765625,-47.9888916015625,-0.34332275390625
0.270751953125,0.9100341796875,0.485107421875,-7.9803466796875,-48.65264892578125,-0.83160400390625
0.2667236328125,0.9134521484375,0.484375,-12.96234130859375,-50.37689208984375,-1.70135498046875
0.269775390625,0.9093017578125,0.4908447265625,-18.37158203125,-52.0172119140625,-1.57928466796875
0.2764892578125,0.8980712890625,0.503662109375,-22.08709716796875,-53.5736083984375,-1.8157958984375
0.279296875,0.8961181640625,0.50341796875,-23.5595703125,-55.47332763671875,-3.96728515625
0.2784423828125,0.89892578125,0.49560546875,-23.55194091796875,-55.633544921875,-5.36346435546875
0.272705078125,0.900146484375,0.50537109375,-24.444580078125,-54.81719970703125,-6.34765625
0.255126953125,0.9140625,0.5069580078125,-30.6854248046875,-59.47113037109375,-8.47625732421875
0.255859375,0.911376953125,0.5118408203125,-40.50445556640625,-67.230224609375,-7.3089599609375
0.2684326171875,0.8968505859375,0.5213623046875,-47.67608642578125,-72.4945068359375,-4.08935546875
0.277099609375,0.882568359375,0.5411376953125,-48.8433837890625,-74.15008544921875,-1.35040283203125
0.286376953125,0.86669921875,0.5599365234375,-44.647216796875,-74.40185546875,-0.32806396484375
0.2926025390625,0.8636474609375,0.557861328125,-37.34588623046875,-75.14190673828125,-2.01416015625
0.3023681640625,0.8582763671875,0.5518798828125,-27.9541015625,-72.88360595703125,-3.143310546875
0.3074951171875,0.855712890625,0.549560546875,-16.60919189453125,-66.38336181640625,-3.65447998046875
0.30859375,0.8536376953125,0.556640625,-4.99725341796875,-59.01336669921875,-4.78363037109375
0.310791015625,0.86083984375,0.5379638671875,3.8909912109375,-54.72564697265625,-8.30078125
0.2967529296875,0.8746337890625,0.5333251953125,11.1236572265625,-48.14910888671875,-10.55908203125
0.284912109375,0.8861083984375,0.5281982421875,13.36669921875,-43.9300537109375,-10.53619384765625
0.27880859375,0.8907470703125,0.52587890625,10.80322265625,-42.8314208984375,-9.20867919921875
0.27099609375,0.9005126953125,0.517333984375,4.95147705078125,-44.41070556640625,-7.49969482421875
0.2801513671875,0.893798828125,0.5174560546875,-1.39617919921875,-45.31097412109375,-3.77655029296875
0.2781982421875,0.889404296875,0.52880859375,-6.38580322265625,-44.86083984375,-0.8087158203125
0.283203125,0.882080078125,0.5352783203125,-10.2996826171875,-45.59326171875,0.518798828125
0.2896728515625,0.8721923828125,0.547119140625,-11.98577880859375,-47.23358154296875,-0.20599365234375
0.291015625,0.867919921875,0.5545654296875,-10.73455810546875,-48.75946044921875,-2.3651123046875
0.2933349609375,0.8646240234375,0.55712890625,-6.67572021484375,-49.24774169921875,-4.79888916015625
0.2867431640625,0.8695068359375,0.5570068359375,-1.40380859375,-49.74365234375,-7.65228271484375
0.2763671875,0.8822021484375,0.5474853515625,2.410888671875,-51.300048828125,-9.307861328125
0.274658203125,0.888427734375,0.5369873046875,3.692626953125,-52.97088623046875,-8.29315185546875
0.2763671875,0.8895263671875,0.5321044921875,2.25067138671875,-54.3670654296875,-6.1187744140625
0.28173828125,0.8902587890625,0.5181884765625,-1.13677978515625,-55.30548095703125,-4.2724609375
0.2828369140625,0.8868408203125,0.5224609375,-5.18798828125,-54.19921875,-2.58636474609375
0.2906494140625,0.87890625,0.527587890625,-9.8419189453125,-53.8177490234375,-1.8768310546875
0.29638671875,0.871826171875,0.53369140625,-12.02392578125,-52.48260498046875,-2.58636474609375
0.2913818359375,0.87109375,0.544189453125,-10.650634765625,-49.3621826171875,-3.5552978515625
0.2874755859375,0.87158203125,0.5506591796875,-7.27081298828125,-46.7376708984375,-4.03594970703125
0.28515625,0.8690185546875,0.56103515625,-3.41796875,-46.08917236328125,-4.08935546875
0.287353515625,0.86865234375,0.556640625,-0.02288818359375,-48.16436767578125,-4.89044189453125
0.2789306640625,0.8802490234375,0.546875,3.77655029296875,-48.797607421875,-5.18035888671875
0.279296875,0.882568359375,0.544677734375,5.2947998046875,-49.23248291015625,-3.44085693359375
0.2843017578125,0.8817138671875,0.5338134765625,3.47900390625,-52.05535888671875,-2.92205810546875
0.2840576171875,0.8876953125,0.520263671875,0.4119873046875,-53.67279052734375,-2.99835205078125
0.28955078125,0.8839111328125,0.5198974609375,-3.08990478515625,-52.3834228515625,-1.7852783203125
0.290283203125,0.88134765625,0.5245361328125,-6.88934326171875,-51.239013671875,-1.77764892578125
0.2969970703125,0.8721923828125,0.53271484375,-9.521484375,-50.35400390625,-2.58636474609375
0.297119140625,0.8681640625,0.5391845703125,-9.1094970703125,-48.6907958984375,-4.7454833984375
0.290771484375,0.86767578125,0.5552978515625,-5.95855712890625,-46.6766357421875,-6.7901611328125
0.281005859375,0.876220703125,0.552978515625,-2.99835205078125,-47.34039306640625,-8.43048095703125
0.27392578125,0.8824462890625,0.5528564453125,-0.8087158203125,-48.5076904296875,-7.62939453125
0.272705078125,0.8902587890625,0.5352783203125,-1.33514404296875,-51.04827880859375,-5.60760498046875
0.2738037109375,0.89013671875,0.535400390625,-4.06646728515625,-51.7578125,-2.0904541015625
0.279296875,0.884521484375,0.5401611328125,-9.918212890625,-54.89349365234375,0.091552734375
0.2872314453125,0.87890625,0.5384521484375,-16.04461669921875,-58.93707275390625,0.2899169921875
0.29931640625,0.8658447265625,0.544677734375,-18.22662353515625,-59.04388427734375,0.54168701171875
0.304931640625,0.858642578125,0.552001953125,-15.3656005859375,-55.9234619140625,-0.48828125
0.30517578125,0.856201171875,0.559814453125,-8.64410400390625,-51.2237548828125,-2.25067138671875
0.302490234375,0.8548583984375,0.56787109375,-0.1220703125,-46.82159423828125,-4.20379638671875
0.2938232421875,0.86572265625,0.5556640625,7.4615478515625,-44.99053955078125,-7.14874267578125
0.28515625,0.8748779296875,0.552734375,12.71820068359375,-43.9453125,-8.35418701171875
0.2745361328125,0.888427734375,0.5391845703125,13.02337646484375,-45.90606689453125,-8.3160400390625
0.2767333984375,0.890869140625,0.5308837890625,9.2926025390625,-48.5687255859375,-5.94329833984375
0.2783203125,0.8935546875,0.5205078125,3.25775146484375,-51.2542724609375,-3.82232666015625
0.2833251953125,0.8900146484375,0.51806640625,-3.05938720703125,-51.605224609375,-1.45721435546875
0.2965087890625,0.874267578125,0.5274658203125,-8.6212158203125,-50.8575439453125,0.03814697265625
0.296630859375,0.87255859375,0.5323486328125,-12.47406005859375,-50.6134033203125,-2.11334228515625
0.294921875,0.8709716796875,0.5384521484375,-13.916015625,-49.7589111328125,-4.3792724609375
0.284912109375,0.877685546875,0.541748046875,-14.801025390625,-49.52239990234375,-5.92041015625
0.2801513671875,0.8790283203125,0.5467529296875,-15.76995849609375,-49.3927001953125,-5.218505859375
0.27099609375,0.886474609375,0.5487060546875,-19.256591796875,-51.971435546875,-4.50897216796875
0.274658203125,0.883056640625,0.549560546875,-25.8636474609375,-56.640625,-2.3345947265625
0.2830810546875,0.8719482421875,0.55712890625,-32.196044921875,-60.6536865234375,-0.02288818359375
0.2916259765625,0.8597412109375,0.565185546875,-35.30120849609375,-62.62969970703125,1.5106201171875
0.3121337890625,0.83837890625,0.576416015625,-34.027099609375,-62.164306640625,1.2359619140625
0.3084716796875,0.835205078125,0.5926513671875,-26.641845703125,-58.92181396484375,-2.227783203125
0.2989501953125,0.83984375,0.5987548828125,-16.204833984375,-56.43463134765625,-5.34820556640625
0.3031005859375,0.8333740234375,0.6068115234375,-3.4332275390625,-53.67279052734375,-6.011962890625
0.3037109375,0.8380126953125,0.59326171875,9.552001953125,-52.65045166015625,-8.2855224609375
0.3070068359375,0.8453369140625,0.573974609375,21.56829833984375,-50.35400390625,-10.467529296875
0.2908935546875,0.8677978515625,0.55322265625,28.98406982421875,-47.63031005859375,-12.7105712890625
0.284912109375,0.8802490234375,0.5369873046875,28.90777587890625,-46.7376708984375,-12.1002197265625
0.2843017578125,0.8896484375,0.515625,21.759033203125,-48.63739013671875,-11.3372802734375
0.279296875,0.896728515625,0.5076904296875,11.29150390625,-49.0875244140625,-9.34600830078125
0.282470703125,0.8936767578125,0.509521484375,-1.03759765625,-49.041748046875,-6.24847412109375
0.28662109375,0.8846435546875,0.5213623046875,-12.94708251953125,-48.92730712890625,-3.73077392578125
0.283935546875,0.88671875,0.5196533203125,-23.651123046875,-49.7894287109375,-2.7008056640625
0.2847900390625,0.8800048828125,0.5345458984375,-32.96661376953125,-49.33929443359375,-0.5340576171875
0.283447265625,0.8763427734375,0.5411376953125,-43.25103759765625,-51.0406494140625,0.67901611328125
0.323486328125,0.8431396484375,0.541015625,-55.16815185546875,-54.8248291015625,-0.54168701171875
0.325927734375,0.82861328125,0.5616455078125,-61.95068359375,-52.04010009765625,-7.25555419921875
0.2955322265625,0.830810546875,0.609375,-62.3626708984375,-46.844482421875,-13.885498046875
0.2725830078125,0.82861328125,0.6497802734375,-61.47003173828125,-50.68206787109375,-17.669677734375
0.2847900390625,0.808349609375,0.6680908203125,-56.1370849609375,-59.34906005859375,-18.73779296875
0.28173828125,0.811279296875,0.6641845703125,-42.3431396484375,-64.06402587890625,-19.927978515625
0.2666015625,0.81494140625,0.6839599609375,-21.06475830078125,-61.1724853515625,-15.96832275390625
0.2681884765625,0.818359375,0.6744384765625,-1.1749267578125,-62.81280517578125,-11.25335693359375
0.2789306640625,0.82080078125,0.6502685546875,16.30401611328125,-65.14739990234375,-7.110595703125
0.29541015625,0.8214111328125,0.6256103515625,31.10504150390625,-65.02532958984375,-4.302978515625
0.3143310546875,0.8280029296875,0.581298828125,41.06903076171875,-63.65203857421875,-5.31768798828125
0.30615234375,0.85302734375,0.5435791015625,46.40960693359375,-56.55670166015625,-7.07244873046875
0.2984619140625,0.8717041015625,0.51904296875,43.67828369140625,-48.01177978515625,-6.65283203125
0.2939453125,0.879150390625,0.5125732421875,32.440185546875,-42.29736328125,-6.37054443359375
0.283203125,0.8876953125,0.5108642578125,15.48004150390625,-40.67230224609375,-7.16400146484375
0.2789306640625,0.8814697265625,0.5302734375,-2.44140625,-40.30609130859375,-5.72967529296875
0.2808837890625,0.8665771484375,0.558837890625,-16.80755615234375,-41.0614013671875,-3.97491455078125
0.2755126953125,0.861328125,0.58056640625,-25.15411376953125,-43.09844970703125,-3.60107421875
0.2760009765625,0.849853515625,0.6021728515625,-28.43475341796875,-45.76873779296875,-2.52532958984375
0.2708740234375,0.8538818359375,0.60302734375,-29.571533203125,-50.10223388671875,-1.76239013671875
0.285400390625,0.8419189453125,0.6029052734375,-30.5633544921875,-53.8177490234375,0.5340576171875
0.314208984375,0.82568359375,0.581787109375,-33.39385986328125,-56.549072265625,-0.9613037109375
0.29736328125,0.830078125,0.6043701171875,-32.3028564453125,-50.750732421875,-4.57763671875
0.280517578125,0.8310546875,0.630126953125,-32.0281982421875,-49.4384765625,-6.2103271484375
0.287109375,0.821044921875,0.63720703125,-30.12847900390625,-52.490234375,-5.43975830078125
0.2823486328125,0.821044921875,0.64599609375,-21.17156982421875,-50.92620849609375,-3.76129150390625
0.279296875,0.8157958984375,0.6617431640625,-7.13348388671875,-47.00469970703125,0.0457763671875
0.2884521484375,0.8094482421875,0.66259765625,7.659912109375,-46.7071533203125,2.31170654296875
0.2940673828125,0.810791015625,0.6541748046875,21.53778076171875,-48.95782470703125,1.007080078125
0.2987060546875,0.819580078125,0.6278076171875,32.26470947265625,-52.46734619140625,-2.78472900390625
0.305908203125,0.828125,0.5985107421875,39.40582275390625,-54.1229248046875,-7.11822509765625
0.2862548828125,0.860107421875,0.56396484375,40.96221923828125,-53.9093017578125,-11.49749755859375
0.2843017578125,0.8736572265625,0.537841796875,35.5072021484375,-52.459716796875,-11.23809814453125
0.275634765625,0.8837890625,0.5306396484375,24.02496337890625,-51.58233642578125,-9.65118408203125
0.27685546875,0.88623046875,0.5213623046875,8.2550048828125,-52.31475830078125,-7.049560546875
0.28369140625,0.876953125,0.530517578125,-6.70623779296875,-50.78125,-3.33404541015625
0.2882080078125,0.8623046875,0.55224609375,-18.157958984375,-48.2635498046875,-0.9002685546875
0.28759765625,0.8541259765625,0.5689697265625,-26.22222900390625,-47.3175048828125,-0.5035400390625
0.2882080078125,0.848388671875,0.5821533203125,-30.78460693359375,-47.24884033203125,-0.70953369140625
0.28076171875,0.8477783203125,0.5963134765625,-32.71484375,-46.9970703125,-0.91552734375
0.3028564453125,0.829833984375,0.593017578125,-35.82000732421875,-49.12567138671875,-1.5869140625
0.2987060546875,0.8248291015625,0.608642578125,-37.49847412109375,-48.17962646484375,-4.4403076171875
0.28369140625,0.8248291015625,0.632568359375,-36.7889404296875,-47.05047607421875,-6.88934326171875
0.2822265625,0.8177490234375,0.6463623046875,-33.57696533203125,-48.2940673828125,-7.10296630859375
0.282958984375,0.8048095703125,0.67626953125,-24.36065673828125,-48.02703857421875,-5.1116943359375
0.2742919921875,0.8106689453125,0.67724609375,-11.71875,-51.55181884765625,-4.69970703125
0.282470703125,0.802978515625,0.67919921875,4.638671875,-52.9632568359375,-2.18963623046875
0.292724609375,0.802001953125,0.664306640625,21.87347412109375,-53.985595703125,-1.44195556640625
0.29150390625,0.812744140625,0.644775390625,36.75079345703125,-55.25970458984375,-3.5247802734375
0.295654296875,0.834228515625,0.59033203125,44.586181640625,-58.624267578125,-7.57598876953125
0.2939453125,0.8531494140625,0.5572509765625,46.57745361328125,-56.64825439453125,-8.941650390625
0.283935546875,0.8734130859375,0.5328369140625,39.48974609375,-54.4891357421875,-9.063720703125
0.2840576171875,0.88427734375,0.510986328125,24.5361328125,-53.9398193359375,-8.39996337890625
0.283935546875,0.8819580078125,0.51611328125,6.683349609375,-52.24609375,-6.37054443359375
0.283447265625,0.8763427734375,0.52783203125,-10.1165771484375,-49.99542236328125,-4.20379638671875
0.286376953125,0.8607177734375,0.557373046875,-22.27020263671875,-46.98944091796875,-1.708984375
0.28564453125,0.8507080078125,0.581787109375,-29.31976318359375,-45.928955078125,-1.0528564453125
0.283935546875,0.8419189453125,0.604248046875,-31.2347412109375,-45.76873779296875,-0.518798828125
0.29052734375,0.8292236328125,0.619873046875,-29.18243408203125,-46.875,-0.11444091796875
0.293701171875,0.8204345703125,0.633056640625,-24.4140625,-48.6602783203125,-1.71661376953125
0.285400390625,0.819580078125,0.64697265625,-17.913818359375,-51.03302001953125,-4.41741943359375
0.281494140625,0.822509765625,0.64404296875,-11.52801513671875,-55.87005615234375,-6.3934326171875
0.2886962890625,0.8197021484375,0.639404296875,-3.5552978515625,-58.074951171875,-5.56182861328125
0.296142578125,0.818359375,0.631103515625,5.76019287109375,-57.39593505859375,-4.69207763671875
0.299072265625,0.8275146484375,0.6064453125,13.9617919921875,-55.68695068359375,-5.3253173828125
0.29052734375,0.843505859375,0.5892333984375,18.24188232421875,-52.5054931640625,-5.3253173828125
0.293701171875,0.8475341796875,0.5760498046875,15.777587890625,-51.12457275390625,-4.058837890625
0.291748046875,0.8607177734375,0.5673828125,9.04083251953125,-50.7354736328125,-3.692626953125
0.2847900390625,0.85498046875,0.5572509765625,-0.7171630859375,-49.835205078125,-2.46429443359375
0.2861328125,0.8603515625,0.565185546875,-9.2010498046875,-47.29461669921875,-0.152587890625
0.3011474609375,0.8392333984375,0.5782470703125,-15.13671875,-45.9442138671875,1.12152099609375
0.291748046875,0.8411865234375,0.5992431640625,-17.40264892578125,-45.074462890625,-1.30462646484375
0.282958984375,0.8468017578125,0.5965576171875,-16.845703125,-46.2799072265625,-3.08990478515625
0.2891845703125,0.8321533203125,0.6142578125,-11.94000244140625,-44.80743408203125,-1.2359619140625
0.289306640625,0.8314208984375,0.6209716796875,-6.8206787109375,-45.2880859375,-1.53350830078125
0.288330078125,0.8345947265625,0.614990234375,-2.51007080078125,-47.76763916015625,-3.12042236328125
0.286865234375,0.8404541015625,0.60205078125,-0.28228759765625,-50.4608154296875,-4.486083984375
0.28955078125,0.839599609375,0.6002197265625,0.030517578125,-51.55181884765625,-4.6234130859375
0.2908935546875,0.8402099609375,0.5946044921875,-1.70135498046875,-52.5360107421875,-4.9591064453125
0.2890625,0.840087890625,0.59619140625,-3.34930419921875,-51.67388916015625,-4.34112548828125
0.2947998046875,0.8338623046875,0.60107421875,-4.5013427734375,-50.33111572265625,-3.5858154296875
0.2900390625,0.83447265625,0.6075439453125,-4.72259521484375,-48.88916015625,-3.71551513671875
0.2884521484375,0.832275390625,0.6173095703125,-4.7454833984375,-49.24774169921875,-3.34930419921875
0.294921875,0.826904296875,0.6171875,-3.631591796875,-50.39215087890625,-3.1890869140625
0.29150390625,0.830322265625,0.61669921875,-0.55694580078125,-50.201416015625,-3.753662109375
0.2890625,0.8326416015625,0.6181640625,1.85394287109375,-50.6134033203125,-3.88336181640625
0.292724609375,0.8331298828125,0.6131591796875,2.54058837890625,-52.90985107421875,-4.5166015625
0.2939453125,0.8382568359375,0.601806640625,2.86102294921875,-54.779052734375,-5.57708740234375
0.29736328125,0.8369140625,0.597412109375,3.8604736328125,-54.01611328125,-5.71441650390625
0.30322265625,0.8343505859375,0.595947265625,5.28717041015625,-52.46734619140625,-6.5765380859375
0.298583984375,0.839111328125,0.595458984375,7.110595703125,-50.71258544921875,-8.43048095703125
0.2906494140625,0.846435546875,0.59130859375,8.3465576171875,-49.44610595703125,-9.66644287109375
0.2860107421875,0.8526611328125,0.584716796875,8.53729248046875,-48.7213134765625,-9.4146728515625
0.2803955078125,0.8580322265625,0.5831298828125,6.9427490234375,-48.8433837890625,-8.38470458984375
0.2794189453125,0.8621826171875,0.57568359375,2.96783447265625,-50.567626953125,-6.9427490234375
0.2784423828125,0.8629150390625,0.576416015625,-2.288818359375,-51.8951416015625,-4.638671875
0.286865234375,0.852783203125,0.58203125,-7.7972412109375,-53.10821533203125,-2.15911865234375
0.29638671875,0.8431396484375,0.584228515625,-11.1541748046875,-53.3447265625,-1.57928466796875
0.2962646484375,0.837646484375,0.5938720703125,-10.79559326171875,-50.567626953125,-1.76239013671875
0.2967529296875,0.8319091796875,0.605712890625,-8.78143310546875,-48.3245849609375,-2.593994140625
0.2940673828125,0.8323974609375,0.610595703125,-6.2103271484375,-48.309326171875,-4.6844482421875
0.28857421875,0.836181640625,0.6129150390625,-3.021240234375,-48.72894287109375,-6.09588623046875
0.2857666015625,0.8388671875,0.612548828125,-0.152587890625,-49.52239990234375,-6.04248046875
0.2841796875,0.842529296875,0.605712890625,1.40380859375,-51.27716064453125,-5.462646484375
0.2872314453125,0.84423828125,0.5958251953125,1.6326904296875,-52.67333984375,-4.425048828125
0.2916259765625,0.844482421875,0.5887451171875,0.80108642578125,-52.79541015625,-3.37982177734375
0.295654296875,0.843017578125,0.585205078125,-1.007080078125,-52.24609375,-3.1890869140625
0.29638671875,0.842529296875,0.5853271484375,-3.22723388671875,-51.17034912109375,-3.94439697265625
0.2906494140625,0.844482421875,0.5887451171875,-5.42449951171875,-50.34637451171875,-5.02777099609375
0.2879638671875,0.84375,0.5955810546875,-7.0648193359375,-50.3997802734375,-5.3253173828125
0.288818359375,0.84033203125,0.600341796875,-7.110595703125,-50.811767578125,-5.16510009765625
0.2874755859375,0.8421630859375,0.599365234375,-5.24139404296875,-51.025390625,-5.1116943359375
0.2840576171875,0.8450927734375,0.597412109375,-2.7008056640625,-50.69732666015625,-4.26483154296875
0.2864990234375,0.846435546875,0.594970703125,-1.4495849609375,-51.0406494140625,-3.0059814453125
0.291015625,0.84375,0.5924072265625,-1.91497802734375,-52.08587646484375,-2.6092529296875
0.2950439453125,0.841552734375,0.5906982421875,-3.4027099609375,-53.2684326171875,-3.59344482421875
0.2967529296875,0.8411865234375,0.5880126953125,-4.58526611328125,-53.45916748046875,-4.93621826171875
0.2965087890625,0.8402099609375,0.589111328125,-4.4708251953125,-51.87225341796875,-5.767822265625
0.288330078125,0.845458984375,0.593994140625,-3.44085693359375,-49.4842529296875,-5.5999755859375
0.2864990234375,0.84521484375,0.596435546875,-3.35693359375,-48.8739013671875,-4.15802001953125
0.2891845703125,0.8427734375,0.5975341796875,-3.875732421875,-49.27825927734375,-2.8228759765625
0.2899169921875,0.8427734375,0.5980224609375,-4.40216064453125,-49.75128173828125,-2.22015380859375
0.2921142578125,0.8414306640625,0.5968017578125,-5.14984130859375,-50.1708984375,-1.8463134765625
0.2962646484375,0.83837890625,0.5950927734375,-5.60760498046875,-49.86572265625,-1.70135498046875
0.2950439453125,0.8367919921875,0.599365234375,-5.40924072265625,-48.7823486328125,-2.15911865234375
0.294189453125,0.836669921875,0.602294921875,-5.14984130859375,-48.4619140625,-3.16619873046875
0.291015625,0.838134765625,0.60546875,-4.52423095703125,-48.77471923828125,-4.180908203125
0.2872314453125,0.840087890625,0.607666015625,-3.2958984375,-49.3621826171875,-4.52423095703125
0.287841796875,0.8404541015625,0.6063232421875,-1.922607421875,-50.37689208984375,-4.3182373046875
0.28564453125,0.8438720703125,0.6033935546875,-0.75531005859375,-51.605224609375,-4.0740966796875
0.2889404296875,0.8441162109375,0.5948486328125,-0.4425048828125,-52.52838134765625,-3.33404541015625
0.2943115234375,0.8433837890625,0.589111328125,-0.84686279296875,-52.3681640625,-2.532958984375
0.2928466796875,0.8460693359375,0.5849609375,-2.46429443359375,-51.71966552734375,-2.6397705078125
0.294189453125,0.843505859375,0.5872802734375,-4.608154296875,-50.74310302734375,-2.3651123046875
0.2960205078125,0.8406982421875,0.5919189453125,-6.1492919921875,-49.6826171875,-2.08282470703125
0.2972412109375,0.8369140625,0.5986328125,-6.23321533203125,-48.065185546875,-1.953125
0.2901611328125,0.84033203125,0.602783203125,-5.45501708984375,-46.9512939453125,-2.1514892578125
0.288818359375,0.84130859375,0.6016845703125,-4.8370361328125,-46.4935302734375,-1.04522705078125
0.29833984375,0.833251953125,0.602294921875,-4.69207763671875,-46.0205078125,0.396728515625
0.2958984375,0.835693359375,0.5997314453125,-5.584716796875,-45.95947265625,-0.4730224609375
0.297119140625,0.83544921875,0.59716796875,-7.01141357421875,-45.41015625,-1.19781494140625
0.293212890625,0.8345947265625,0.6058349609375,-8.7432861328125,-44.647216796875,-1.68609619140625
0.295166015625,0.82958984375,0.6124267578125,-10.59722900390625,-45.52459716796875,-2.4566650390625
0.2896728515625,0.8336181640625,0.6126708984375,-11.22283935546875,-46.83685302734375,-3.692626953125
0.2955322265625,0.825439453125,0.620361328125,-10.33782958984375,-47.0733642578125,-3.25775146484375
0.2890625,0.831298828125,0.6190185546875,-8.52203369140625,-47.79052734375,-3.88336181640625
0.29833984375,0.8251953125,0.6151123046875,-6.6070556640625,-48.4771728515625,-3.66973876953125
0.2872314453125,0.83349609375,0.6168212890625,-4.17327880859375,-47.8973388671875,-4.82940673828125
0.2899169921875,0.83544921875,0.606689453125,-3.79180908203125,-49.82757568359375,-5.95855712890625
0.287841796875,0.837158203125,0.6065673828125,-4.0283203125,-50.1556396484375,-6.03485107421875
0.2882080078125,0.837890625,0.6038818359375,-5.36346435546875,-51.0406494140625,-6.46209716796875
0.290283203125,0.8392333984375,0.596435546875,-6.683349609375,-51.20849609375,-6.5765380859375
0.2857666015625,0.8385009765625,0.607421875,-7.1258544921875,-48.828125,-5.53131103515625
0.2882080078125,0.8348388671875,0.6112060546875,-8.14056396484375,-49.01885986328125,-5.01251220703125
0.2913818359375,0.827392578125,0.62158203125,-7.46917724609375,-48.7213134765625,-4.66156005859375
0.2886962890625,0.829833984375,0.619140625,-6.134033203125,-49.65972900390625,-5.9051513671875
0.2890625,0.8265380859375,0.625244140625,-4.92095947265625,-50.201416015625,-6.500244140625
0.2867431640625,0.827880859375,0.6240234375,-4.76837158203125,-52.00958251953125,-7.53021240234375
0.289306640625,0.828369140625,0.619384765625,-4.82177734375,-53.67279052734375,-8.1634521484375
0.28759765625,0.828125,0.621337890625,-4.14276123046875,-53.18450927734375,-7.8887939453125
0.287841796875,0.8265380859375,0.6207275390625,-3.6163330078125,-52.61993408203125,-7.14874267578125
0.28515625,0.8284912109375,0.6199951171875,-3.4332275390625,-52.4444580078125,-6.64520263671875
0.2847900390625,0.8287353515625,0.621337890625,-3.387451171875,-52.26898193359375,-5.67626953125
0.284912109375,0.8297119140625,0.6204833984375,-3.25775146484375,-52.5360107421875,-4.69970703125
0.2889404296875,0.829345703125,0.6142578125,-2.23541259765625,-51.88751220703125,-3.31878662109375
0.288818359375,0.8289794921875,0.6158447265625,-0.02288818359375,-49.32403564453125,-1.77001953125
0.289794921875,0.8304443359375,0.6143798828125,1.33514404296875,-48.2025146484375,-1.28173828125
0.2884521484375,0.83544921875,0.60498046875,0.8087158203125,-48.91204833984375,-2.166748046875
0.29052734375,0.8349609375,0.602294921875,-0.732421875,-49.30877685546875,-2.69317626953125
0.2890625,0.837158203125,0.598388671875,-2.716064453125,-49.4232177734375,-3.56292724609375
0.2882080078125,0.8355712890625,0.6043701171875,-4.47845458984375,-48.89678955078125,-3.76129150390625
0.2869873046875,0.8349609375,0.6092529296875,-5.69915771484375,-48.92730712890625,-3.95965576171875
0.285888671875,0.8336181640625,0.6123046875,-5.8441162109375,-49.07989501953125,-4.058837890625
0.287353515625,0.8294677734375,0.6199951171875,-5.04302978515625,-49.1790771484375,-3.94439697265625
0.2872314453125,0.828125,0.6226806640625,-3.9215087890625,-49.86572265625,-4.34112548828125
0.288818359375,0.8255615234375,0.624267578125,-2.8533935546875,-50.9033203125,-4.96673583984375
0.2872314453125,0.8280029296875,0.6199951171875,-2.4871826171875,-52.54364013671875,-6.134033203125
0.28857421875,0.8282470703125,0.61669921875,-2.4261474609375,-52.98614501953125,-6.2713623046875
0.28955078125,0.8270263671875,0.61669921875,-2.47955322265625,-52.215576171875,-5.86700439453125
0.2890625,0.8272705078125,0.6165771484375,-3.0517578125,-51.5594482421875,-5.71441650390625
0.2877197265625,0.8272705078125,0.619384765625,-3.936767578125,-51.025390625,-5.36346435546875
0.2874755859375,0.8267822265625,0.622314453125,-4.67681884765625,-50.84228515625,-4.974365234375
0.2852783203125,0.827392578125,0.62548828125,-4.8980712890625,-50.92620849609375,-4.5166015625
0.287841796875,0.8245849609375,0.626953125,-4.20379638671875,-51.20086669921875,-3.83758544921875
0.29052734375,0.8258056640625,0.6197509765625,-2.4566650390625,-51.1474609375,-3.68499755859375
0.28857421875,0.827880859375,0.620849609375,-0.06866455078125,-49.73602294921875,-3.7841796875
0.2822265625,0.833740234375,0.61865234375,0.7781982421875,-50.62103271484375,-4.4097900390625
0.2882080078125,0.833251953125,0.6087646484375,0.64849853515625,-52.16217041015625,-3.84521484375
0.2913818359375,0.83349609375,0.6026611328125,1.0986328125,-50.94146728515625,-3.2806396484375
0.2891845703125,0.8359375,0.603515625,0.67901611328125,-49.1943359375,-3.18145751953125
0.2877197265625,0.8370361328125,0.604736328125,-1.495361328125,-49.0264892578125,-3.47137451171875
0.2890625,0.8349609375,0.6080322265625,-3.97491455078125,-49.33929443359375,-3.7994384765625
0.2889404296875,0.830810546875,0.61279296875,-5.401611328125,-49.03411865234375,-4.11224365234375
0.28564453125,0.8302001953125,0.6182861328125,-5.76019287109375,-48.91204833984375,-4.608154296875
0.2860107421875,0.828125,0.620361328125,-5.67626953125,-49.468994140625,-4.852294921875
0.285888671875,0.82666015625,0.62255859375,-5.0048828125,-49.8504638671875,-4.75311279296875
0.285888671875,0.826416015625,0.6229248046875,-4.06646728515625,-50.17852783203125,-4.638671875
0.28662109375,0.826416015625,0.6221923828125,-3.28826904296875,-50.3997802734375,-4.44793701171875
0.2860107421875,0.8297119140625,0.61962890625,-3.07464599609375,-50.8270263671875,-4.33349609375
0.285888671875,0.8282470703125,0.62158203125,-3.082275390625,-50.994873046875,-3.89862060546875
0.2890625,0.8280029296875,0.615966796875,-2.93731689453125,-51.39923095703125,-3.48663330078125
0.2900390625,0.8280029296875,0.6138916015625,-1.48773193359375,-49.59869384765625,-2.79998779296875
0.284423828125,0.8309326171875,0.6181640625,-0.6103515625,-48.07281494140625,-2.5482177734375
0.2879638671875,0.8302001953125,0.6142578125,-1.50299072265625,-49.163818359375,-2.74658203125
0.2882080078125,0.8294677734375,0.6160888671875,-1.678466796875,-49.36981201171875,-3.10516357421875
0.287841796875,0.83056640625,0.6143798828125,-1.76239013671875,-49.76654052734375,-3.509521484375
0.2882080078125,0.82958984375,0.6156005859375,-1.65557861328125,-49.7894287109375,-3.6468505859375
0.288330078125,0.829345703125,0.6156005859375,-1.64794921875,-49.8809814453125,-3.85284423828125
0.2894287109375,0.8287353515625,0.6160888671875,-1.70135498046875,-50.10223388671875,-4.150390625
0.288818359375,0.827392578125,0.6185302734375,-1.74713134765625,-50.5828857421875,-4.8065185546875
0.287841796875,0.830322265625,0.61376953125,-2.0599365234375,-51.53656005859375,-5.59234619140625
0.2884521484375,0.8302001953125,0.61572265625,-2.18963623046875,-51.1322021484375,-5.3558349609375
0.2882080078125,0.830810546875,0.614013671875,-2.78472900390625,-50.9185791015625,-5.24139404296875
0.2884521484375,0.829833984375,0.6146240234375,-3.63922119140625,-50.537109375,-5.0811767578125
0.2877197265625,0.8282470703125,0.6165771484375,-4.57000732421875,-50.19378662109375,-4.90570068359375
0.2864990234375,0.8291015625,0.6165771484375,-5.25665283203125,-50.1251220703125,-4.8370361328125
0.2852783203125,0.827880859375,0.6199951171875,-5.39398193359375,-50.05645751953125,-4.53948974609375
0.286376953125,0.8262939453125,0.6219482421875,-4.90570068359375,-50.14801025390625,-4.2572021484375
0.285888671875,0.82763671875,0.62109375,-3.5858154296875,-50.34637451171875,-4.28009033203125
0.285400390625,0.8267822265625,0.6224365234375,-1.82342529296875,-50.59814453125,-4.0740966796875
0.2838134765625,0.830078125,0.6197509765625,-0.26702880859375,-51.35345458984375,-4.0740966796875
0.286865234375,0.8297119140625,0.6171875,0.9613037109375,-51.910400390625,-3.77655029296875
0.2872314453125,0.8328857421875,0.6102294921875,1.556396484375,-52.07061767578125,-3.96728515625
0.2886962890625,0.834228515625,0.6068115234375,1.19781494140625,-51.49078369140625,-3.9825439453125
0.2889404296875,0.8345947265625,0.606201171875,-0.3204345703125,-50.8575439453125,-4.06646728515625
0.2886962890625,0.8336181640625,0.608154296875,-2.2735595703125,-50.27008056640625,-4.11224365234375
0.2894287109375,0.83154296875,0.61083984375,-3.9825439453125,-49.93438720703125,-4.23431396484375
0.2899169921875,0.8282470703125,0.6158447265625,-4.87518310546875,-49.346923828125,-4.4097900390625
0.28662109375,0.8287353515625,0.62158203125,-5.25665283203125,-49.26300048828125,-4.8828125
0.287841796875,0.826904296875,0.6212158203125,-5.62286376953125,-50.1251220703125,-5.0048828125
0.2862548828125,0.8265380859375,0.62451171875,-5.19561767578125,-50.10986328125,-4.7454833984375
0.2869873046875,0.82568359375,0.624755859375,-4.4403076171875,-50.27008056640625,-4.58526611328125
0.2869873046875,0.8287353515625,0.6190185546875,-3.7689208984375,-50.689697265625,-4.6539306640625
0.2874755859375,0.8271484375,0.6217041015625,-3.0670166015625,-50.262451171875,-4.2877197265625
0.2864990234375,0.829833984375,0.617431640625,-2.8839111328125,-50.7049560546875,-4.53948974609375
0.28759765625,0.8291015625,0.6187744140625,-2.2735595703125,-50.3387451171875,-4.21142578125
0.2850341796875,0.8319091796875,0.619384765625,-1.80816650390625,-50.59814453125,-4.302978515625
0.2855224609375,0.8299560546875,0.6219482421875,-1.068115234375,-50.9490966796875,-3.92913818359375
0.2872314453125,0.830078125,0.6180419921875,-0.152587890625,-51.7578125,-3.8604736328125
0.290283203125,0.8314208984375,0.611328125,1.09100341796875,-51.4373779296875,-3.76129150390625
0.287109375,0.8349609375,0.6090087890625,1.47247314453125,-50.49896240234375,-3.76129150390625
0.28662109375,0.836669921875,0.6064453125,-0.05340576171875,-50.62103271484375,-3.875732421875
0.2891845703125,0.8336181640625,0.6075439453125,-2.0751953125,-50.49896240234375,-3.7384033203125
0.29052734375,0.83154296875,0.6075439453125,-3.6163330078125,-50.048828125,-4.00543212890625
0.2894287109375,0.8299560546875,0.61279296875,-4.4708251953125,-49.163818359375,-4.3182373046875
0.287353515625,0.8304443359375,0.6170654296875,-5.14984130859375,-49.15618896484375,-4.79888916015625
0.28759765625,0.8306884765625,0.617431640625,-5.72967529296875,-49.99542236328125,-5.10406494140625
0.287109375,0.8287353515625,0.6207275390625,-5.4168701171875,-49.896240234375,-4.87518310546875
0.2867431640625,0.8282470703125,0.6209716796875,-4.76837158203125,-50.07171630859375,-4.70733642578125
0.2864990234375,0.8291015625,0.61865234375,-4.03594970703125,-50.445556640625,-4.6844482421875
0.2872314453125,0.8275146484375,0.6199951171875,-3.25775146484375,-50.30059814453125,-4.39453125
0.2869873046875,0.828369140625,0.618408203125,-2.6397705078125,-50.54473876953125,-4.41741943359375
0.2861328125,0.82861328125,0.6207275390625,-1.79290771484375,-50.4608154296875,-4.15802001953125
0.2852783203125,0.82958984375,0.621337890625,-1.09100341796875,-51.025390625,-4.15802001953125
0.287109375,0.828857421875,0.6202392578125,-0.32806396484375,-51.5899658203125,-3.936767578125
0.2880859375,0.830078125,0.614501953125,0.23651123046875,-52.0477294921875,-4.06646728515625
0.28857421875,0.830078125,0.6123046875,0.26702880859375,-51.7120361328125,-4.0130615234375
0.29052734375,0.830078125,0.611083984375,-0.46539306640625,-51.4373779296875,-4.08935546875
0.2879638671875,0.8306884765625,0.6131591796875,-1.35040283203125,-50.80413818359375,-3.9825439453125
0.2900390625,0.828857421875,0.6138916015625,-2.166748046875,-50.45318603515625,-3.7994384765625
0.29052734375,0.8271484375,0.616943359375,-2.38037109375,-49.88861083984375,-4.00543212890625
0.2861328125,0.8311767578125,0.6171875,-2.55584716796875,-49.6368408203125,-4.60052490234375
0.2867431640625,0.8316650390625,0.61767578125,-3.173828125,-50.0946044921875,-4.46319580078125
0.2900390625,0.8294677734375,0.615478515625,-3.7689208984375,-50.42266845703125,-4.1656494140625
0.2869873046875,0.8304443359375,0.61962890625,-3.45611572265625,-49.43084716796875,-4.0283203125
0.287841796875,0.830078125,0.6170654296875,-3.41033935546875,-49.74365234375,-4.1656494140625
0.28662109375,0.832763671875,0.6123046875,-3.45611572265625,-50.1861572265625,-4.2724609375
0.288818359375,0.8299560546875,0.6158447265625,-3.34930419921875,-49.7894287109375,-3.88336181640625
0.2869873046875,0.830078125,0.6182861328125,-3.082275390625,-49.70550537109375,-3.90625
0.284423828125,0.83203125,0.619140625,-2.7618408203125,-50.3082275390625,-3.74603271484375
0.287353515625,0.83154296875,0.6173095703125,-1.97601318359375,-50.8880615234375,-3.265380859375
0.2890625,0.830078125,0.614990234375,-0.31280517578125,-50.43792724609375,-2.84576416015625
0.28955078125,0.8299560546875,0.6151123046875,1.01470947265625,-49.69024658203125,-2.84576416015625
0.2890625,0.8326416015625,0.60986328125,0.48828125,-50.10223388671875,-3.47900390625
0.2877197265625,0.8353271484375,0.6077880859375,-1.12152099609375,-50.20904541015625,-3.9520263671875
0.2913818359375,0.83154296875,0.6080322265625,-3.24249267578125,-50.0946044921875,-3.92913818359375
0.291015625,0.8287353515625,0.6129150390625,-4.7454833984375,-49.17144775390625,-4.241943359375
0.288818359375,0.8270263671875,0.6214599609375,-5.72967529296875,-48.82049560546875,-4.82177734375
0.2869873046875,0.8262939453125,0.625244140625,-6.5460205078125,-50.1251220703125,-5.62286376953125
0.285888671875,0.826904296875,0.625732421875,-6.24847412109375,-51.1016845703125,-5.85174560546875
0.2843017578125,0.8262939453125,0.628173828125,-4.486083984375,-50.9796142578125,-5.40924072265625
0.2850341796875,0.8280029296875,0.6224365234375,-2.8076171875,-51.544189453125,-5.096435546875
0.285400390625,0.8291015625,0.619384765625,-1.33514404296875,-51.544189453125,-4.5623779296875
0.28662109375,0.8297119140625,0.617431640625,-0.31280517578125,-51.300048828125,-4.150390625
0.287841796875,0.8316650390625,0.6119384765625,-0.00762939453125,-51.544189453125,-4.241943359375
0.286376953125,0.8336181640625,0.6109619140625,-0.42724609375,-51.3763427734375,-4.05120849609375
0.28857421875,0.83251953125,0.6087646484375,-1.25885009765625,-51.00250244140625,-3.45611572265625
0.291748046875,0.830322265625,0.606689453125,-1.5106201171875,-50.14801025390625,-3.21197509765625
0.2864990234375,0.8338623046875,0.6112060546875,-1.556396484375,-49.06463623046875,-3.3111572265625
0.289306640625,0.8330078125,0.6090087890625,-2.6092529296875,-49.468994140625,-3.4942626953125
0.288330078125,0.831298828125,0.6134033203125,-3.35693359375,-49.1485595703125,-3.66973876953125
0.287109375,0.83056640625,0.6153564453125,-4.058837890625,-49.31640625,-3.90625
0.2890625,0.8272705078125,0.6175537109375,-4.2724609375,-49.6826171875,-4.33349609375
0.287109375,0.824951171875,0.6241455078125,-4.12750244140625,-50.02593994140625,-4.9591064453125
0.28662109375,0.8271484375,0.6212158203125,-4.17327880859375,-51.24664306640625,-5.859375
0.285888671875,0.8265380859375,0.6226806640625,-3.85284423828125,-51.81121826171875,-6.23321533203125
0.2860107421875,0.8277587890625,0.620849609375,-3.6468505859375,-52.398681640625,-6.317138671875
0.2864990234375,0.8277587890625,0.6207275390625,-2.899169921875,-51.9561767578125,-5.7525634765625
0.287109375,0.827392578125,0.6209716796875,-2.23541259765625,-51.8035888671875,-5.30242919921875
0.2864990234375,0.8299560546875,0.6168212890625,-2.0294189453125,-51.7578125,-5.1422119140625
0.2877197265625,0.827880859375,0.61962890625,-1.82342529296875,-51.1322021484375,-4.6234130859375
0.2825927734375,0.8331298828125,0.6160888671875,-2.0904541015625,-51.5899658203125,-4.61578369140625
0.29052734375,0.828369140625,0.6129150390625,-2.044677734375,-51.4678955078125,-3.6468505859375
0.288818359375,0.829833984375,0.616943359375,-0.9613037109375,-50.11749267578125,-3.65447998046875
0.286376953125,0.83203125,0.6142578125,-0.6561279296875,-49.84283447265625,-3.97491455078125
0.286376953125,0.8331298828125,0.611083984375,-1.28173828125,-50.10223388671875,-3.95965576171875
0.286865234375,0.832763671875,0.6109619140625,-2.105712890625,-50.05645751953125,-3.95965576171875
0.28759765625,0.8319091796875,0.6116943359375,-3.1280517578125,-49.91912841796875,-4.058837890625
0.2884521484375,0.83056640625,0.613525390625,-3.90625,-49.56817626953125,-4.180908203125
0.28662109375,0.8302001953125,0.6182861328125,-4.2572021484375,-49.468994140625,-4.5623779296875
0.284912109375,0.83056640625,0.6214599609375,-4.39453125,-50.0030517578125,-4.81414794921875
0.28662109375,0.8287353515625,0.621337890625,-4.1351318359375,-50.6591796875,-4.6539306640625
0.2867431640625,0.8282470703125,0.6212158203125,-3.3111572265625,-50.77362060546875,-4.52423095703125
0.2861328125,0.82861328125,0.6207275390625,-2.471923828125,-50.84228515625,-4.43267822265625
0.2861328125,0.828369140625,0.619873046875,-1.76239013671875,-50.8270263671875,-4.29534912109375
0.2867431640625,0.8287353515625,0.6175537109375,-1.373291015625,-50.9490966796875,-4.23431396484375
0.286865234375,0.8306884765625,0.6129150390625,-1.44195556640625,-51.08642578125,-4.29534912109375
0.28759765625,0.8302001953125,0.612548828125,-1.8768310546875,-50.72784423828125,-4.20379638671875
0.2874755859375,0.8304443359375,0.6141357421875,-2.51007080078125,-50.29296875,-4.1961669921875
0.2869873046875,0.8299560546875,0.6158447265625,-3.0670166015625,-50.11749267578125,-4.302978515625
0.2872314453125,0.829833984375,0.6162109375,-3.3416748046875,-50.11749267578125,-4.34112548828125
0.28564453125,0.829345703125,0.619384765625,-3.173828125,-50.02593994140625,-4.28009033203125
0.2861328125,0.829345703125,0.61865234375,-2.75421142578125,-50.45318603515625,-4.2877197265625
0.2869873046875,0.8289794921875,0.6202392578125,-1.99127197265625,-50.7049560546875,-4.1961669921875
0.287109375,0.8304443359375,0.615966796875,-1.48773193359375,-51.01776123046875,-4.2877197265625
0.2884521484375,0.82958984375,0.6141357421875,-1.3580322265625,-50.7965087890625,-4.20379638671875
0.2894287109375,0.8291015625,0.6138916015625,-1.73187255859375,-50.49896240234375,-4.486083984375
0.2855224609375,0.8311767578125,0.616943359375,-2.55584716796875,-50.35400390625,-5.08880615234375
0.285888671875,0.830810546875,0.6158447265625,-4.0740966796875,-51.3763427734375,-5.47027587890625
0.2867431640625,0.829833984375,0.6162109375,-4.89044189453125,-51.5899658203125,-5.3558349609375
0.286376953125,0.828369140625,0.619384765625,-4.8065185546875,-50.9796142578125,-4.9896240234375
0.2864990234375,0.8267822265625,0.622314453125,-4.29534912109375,-50.7354736328125,-4.7760009765625
0.28515625,0.8267822265625,0.62451171875,-3.2501220703125,-50.77362060546875,-4.58526611328125
0.281982421875,0.829345703125,0.6240234375,-2.06756591796875,-51.12457275390625,-4.49371337890625
0.286865234375,0.8284912109375,0.6201171875,-1.1444091796875,-51.55181884765625,-3.875732421875
0.2872314453125,0.82861328125,0.6180419921875,0.00762939453125,-51.1474609375,-3.5858154296875
0.285888671875,0.8323974609375,0.6123046875,0.55694580078125,-50.81939697265625,-3.7994384765625
0.2864990234375,0.833251953125,0.6080322265625,-0.06103515625,-50.59814453125,-3.7994384765625
0.2889404296875,0.83251953125,0.6063232421875,-1.44195556640625,-50.201416015625,-3.92913818359375
0.2879638671875,0.8326416015625,0.6094970703125,-2.960205078125,-49.5147705078125,-4.33349609375
0.2860107421875,0.8331298828125,0.614013671875,-4.41741943359375,-49.43084716796875,-4.669189453125
0.285888671875,0.83203125,0.6156005859375,-5.3863525390625,-49.835205078125,-4.73785400390625
0.28564453125,0.8297119140625,0.6229248046875,-5.16510009765625,-49.58343505859375,-4.47845458984375
0.28564453125,0.82861328125,0.6234130859375,-4.38690185546875,-50.0335693359375,-4.5318603515625
0.28564453125,0.8271484375,0.6234130859375,-3.0975341796875,-50.27008056640625,-4.35638427734375
0.2862548828125,0.8277587890625,0.62158203125,-1.9378662109375,-50.65155029296875,-4.302978515625
0.2864990234375,0.8291015625,0.61865234375,-1.220703125,-50.9033203125,-4.20379638671875
0.28564453125,0.8314208984375,0.6162109375,-1.0986328125,-50.91094970703125,-4.12750244140625
0.2862548828125,0.8289794921875,0.61962890625,-1.068115234375,-50.7049560546875,-3.7689208984375
0.286865234375,0.832763671875,0.612060546875,-1.60980224609375,-51.8951416015625,-4.05120849609375
0.2880859375,0.83203125,0.6102294921875,-1.7547607421875,-51.4068603515625,-3.41033935546875
0.289794921875,0.830078125,0.610107421875,-1.82342529296875,-49.774169921875,-2.76947021484375
0.2880859375,0.8291015625,0.6146240234375,-2.4261474609375,-48.59161376953125,-2.7618408203125
0.2882080078125,0.828369140625,0.619384765625,-3.4332275390625,-48.92730712890625,-3.13568115234375
0.2867431640625,0.8294677734375,0.6163330078125,-3.9825439453125,-49.84283447265625,-3.62396240234375
0.28759765625,0.828125,0.619384765625,-3.56292724609375,-49.81231689453125,-3.60870361328125
0.2884521484375,0.8289794921875,0.61767578125,-3.082275390625,-50.01068115234375,-3.8909912109375
0.287109375,0.828125,0.6190185546875,-2.40325927734375,-49.713134765625,-3.9520263671875
0.286376953125,0.828857421875,0.6173095703125,-2.0751953125,-50.0946044921875,-4.1961669921875
0.28662109375,0.8292236328125,0.615478515625,-1.91497802734375,-50.3692626953125,-4.18853759765625
0.287353515625,0.8294677734375,0.6151123046875,-2.08282470703125,-50.37689208984375,-4.1656494140625
0.2872314453125,0.8299560546875,0.6138916015625,-2.4261474609375,-50.33111572265625,-4.1961669921875
0.287109375,0.82958984375,0.61474609375,-2.8076171875,-50.2166748046875,-4.1656494140625
0.287353515625,0.829345703125,0.6160888671875,-3.204345703125,-50.1861572265625,-4.20379638671875
0.286865234375,0.828857421875,0.6177978515625,-3.4027099609375,-50.07171630859375,-4.1961669921875
0.2861328125,0.82861328125,0.6187744140625,-3.33404541015625,-50.10986328125,-4.18853759765625
0.2860107421875,0.82861328125,0.619140625,-3.0364990234375,-50.20904541015625,-4.180908203125
0.286376953125,0.8284912109375,0.619384765625,-2.6092529296875,-50.29296875,-4.17327880859375
0.286865234375,0.828857421875,0.6177978515625,-2.197265625,-50.4608154296875,-4.1961669921875
0.2860107421875,0.829833984375,0.6165771484375,-1.9073486328125,-50.5828857421875,-4.1961669921875
0.286376953125,0.8292236328125,0.61572265625,-1.8310546875,-50.59051513671875,-4.17327880859375
0.2867431640625,0.8297119140625,0.614501953125,-1.9989013671875,-50.567626953125,-4.18853759765625
0.2872314453125,0.8302001953125,0.615234375,-2.3193359375,-50.49896240234375,-4.180908203125
0.2877197265625,0.830078125,0.615966796875,-2.69317626953125,-50.40740966796875,-4.18853759765625
0.287353515625,0.8309326171875,0.617431640625,-3.02886962890625,-50.28533935546875,-4.1961669921875
0.2872314453125,0.830322265625,0.6180419921875,-3.18145751953125,-50.19378662109375,-4.21905517578125
0.287353515625,0.8302001953125,0.6192626953125,-3.12042236328125,-50.23956298828125,-4.2266845703125
0.2872314453125,0.8292236328125,0.6190185546875,-2.8839111328125,-50.3082275390625,-4.21142578125
0.2877197265625,0.82861328125,0.61865234375,-2.58636474609375,-50.34637451171875,-4.1961669921875
0.287109375,0.8294677734375,0.619140625,-2.2735595703125,-50.384521484375,-4.17327880859375
0.28662109375,0.8297119140625,0.6187744140625,-2.01416015625,-50.51422119140625,-4.15802001953125
0.28759765625,0.831298828125,0.6143798828125,-2.0751953125,-50.80413818359375,-4.26483154296875
0.2872314453125,0.830810546875,0.6148681640625,-2.349853515625,-50.43792724609375,-4.1656494140625
0.2861328125,0.8304443359375,0.6156005859375,-2.7618408203125,-50.20904541015625,-4.17327880859375
0.286865234375,0.829345703125,0.6175537109375,-2.9144287109375,-50.140380859375,-4.150390625
0.2867431640625,0.8306884765625,0.616455078125,-3.01361083984375,-50.43792724609375,-4.28009033203125
0.2869873046875,0.830322265625,0.616455078125,-2.99072265625,-50.262451171875,-4.20379638671875
0.287109375,0.8292236328125,0.61865234375,-2.86102294921875,-50.13275146484375,-4.12750244140625
0.287353515625,0.829345703125,0.6171875,-2.6397705078125,-50.384521484375,-4.21905517578125
0.287353515625,0.8294677734375,0.6168212890625,-2.38800048828125,-50.48370361328125,-4.2266845703125
0.287841796875,0.8302001953125,0.6153564453125,-2.34222412109375,-50.47607421875,-4.21142578125
0.2867431640625,0.831298828125,0.6153564453125,-2.4871826171875,-50.46844482421875,-4.20379638671875
0.284912109375,0.8331298828125,0.61376953125,-3.0364990234375,-50.81939697265625,-3.997802734375
0.2882080078125,0.82958984375,0.6151123046875,-3.5858154296875,-50.88043212890625,-3.2196044921875
0.2879638671875,0.829345703125,0.616943359375,-3.51715087890625,-50.30059814453125,-2.90679931640625
0.2904052734375,0.8291015625,0.6138916015625,-3.30352783203125,-49.835205078125,-2.79998779296875
0.292724609375,0.82421875,0.621337890625,-2.69317626953125,-48.31695556640625,-2.69317626953125
0.2860107421875,0.828369140625,0.6243896484375,-2.69317626953125,-48.95782470703125,-3.85284423828125
0.287109375,0.828857421875,0.6187744140625,-2.685546875,-50.84991455078125,-4.06646728515625
0.2891845703125,0.8282470703125,0.6163330078125,-1.25885009765625,-50.10223388671875,-3.27301025390625
0.287353515625,0.829345703125,0.617919921875,0.2593994140625,-48.97308349609375,-3.0517578125
0.2845458984375,0.8330078125,0.6153564453125,0.29754638671875,-49.75128173828125,-3.36456298828125
0.28759765625,0.83203125,0.6136474609375,0.0152587890625,-50.27008056640625,-2.89154052734375
0.290283203125,0.8310546875,0.6102294921875,-0.05340576171875,-50.079345703125,-2.64739990234375
0.291015625,0.8314208984375,0.6090087890625,-0.152587890625,-48.88916015625,-2.410888671875
0.287353515625,0.833251953125,0.611083984375,-1.27410888671875,-48.30169677734375,-2.716064453125
0.28955078125,0.831787109375,0.6103515625,-3.62396240234375,-49.23248291015625,-3.36456298828125
0.291015625,0.83056640625,0.609619140625,-5.51605224609375,-49.38507080078125,-3.72314453125
0.287353515625,0.8297119140625,0.6177978515625,-6.53076171875,-48.50006103515625,-3.73077392578125
0.289794921875,0.8262939453125,0.62060546875,-7.32421875,-48.828125,-3.8299560546875
0.289794921875,0.822998046875,0.6258544921875,-6.500244140625,-48.37799072265625,-4.12750244140625
0.2862548828125,0.8226318359375,0.6334228515625,-4.82940673828125,-48.980712890625,-4.85992431640625
0.2867431640625,0.82373046875,0.62890625,-3.18145751953125,-51.2237548828125,-5.79071044921875
0.2840576171875,0.8265380859375,0.6265869140625,-0.9307861328125,-52.2003173828125,-6.0272216796875
0.2869873046875,0.827880859375,0.619140625,0.7476806640625,-53.01666259765625,-5.55419921875
0.2899169921875,0.828125,0.61279296875,1.99127197265625,-52.45208740234375,-4.78363037109375
0.2891845703125,0.8294677734375,0.6119384765625,2.38037109375,-51.21612548828125,-4.4097900390625
0.288818359375,0.8314208984375,0.613037109375,1.556396484375,-50.89569091796875,-4.67681884765625
0.2872314453125,0.833251953125,0.6123046875,0.579833984375,-50.811767578125,-4.87518310546875
0.286865234375,0.8328857421875,0.6142578125,-0.05340576171875,-50.60577392578125,-4.41741943359375
0.287841796875,0.832275390625,0.613525390625,-0.70953369140625,-50.94146728515625,-4.26483154296875
0.2872314453125,0.8345947265625,0.609619140625,-1.54876708984375,-51.33819580078125,-4.2877197265625
0.2891845703125,0.832763671875,0.607666015625,-2.685546875,-51.03302001953125,-3.90625
0.2901611328125,0.830810546875,0.6119384765625,-4.08172607421875,-50.49896240234375,-3.9520263671875
0.289306640625,0.830078125,0.6170654296875,-4.82940673828125,-50.1861572265625,-4.34112548828125
0.2867431640625,0.8299560546875,0.622314453125,-4.14276123046875,-49.7589111328125,-4.41741943359375
0.28662109375,0.8277587890625,0.6265869140625,-2.7008056640625,-50.0335693359375,-4.1046142578125
0.2847900390625,0.832763671875,0.6197509765625,-1.13677978515625,-51.17034912109375,-4.40216064453125
0.285400390625,0.8323974609375,0.6181640625,0.81634521484375,-50.506591796875,-3.27301025390625
0.2889404296875,0.831787109375,0.6107177734375,0.75531005859375,-51.06353759765625,-2.838134765625
0.29150390625,0.833740234375,0.6024169921875,-0.34332275390625,-50.91094970703125,-2.76947021484375
0.2962646484375,0.829345703125,0.6046142578125,-2.38800048828125,-49.47662353515625,-2.50244140625
0.294921875,0.8284912109375,0.6082763671875,-4.364013671875,-48.28643798828125,-3.5552978515625
0.2850341796875,0.8331298828125,0.615966796875,-5.25665283203125,-47.088623046875,-4.17327880859375
0.2896728515625,0.8258056640625,0.6214599609375,-5.9814453125,-47.8057861328125,-4.0740966796875
0.288818359375,0.8271484375,0.6212158203125,-5.2490234375,-48.85101318359375,-4.90570068359375
0.284912109375,0.8291015625,0.625,-2.83050537109375,-48.53057861328125,-4.8065185546875
0.282958984375,0.830078125,0.625244140625,-0.87738037109375,-49.46136474609375,-4.47845458984375
0.2843017578125,0.830810546875,0.6199951171875,0.4119873046875,-51.239013671875,-4.21142578125
0.286376953125,0.8326416015625,0.6129150390625,1.21307373046875,-52.3834228515625,-3.99017333984375
0.2840576171875,0.8394775390625,0.600830078125,0.99945068359375,-52.4749755859375,-3.71551513671875
0.291748046875,0.8358154296875,0.5982666015625,-0.90789794921875,-51.44500732421875,-2.60162353515625
0.292236328125,0.8349609375,0.59716796875,-4.31060791015625,-50.66680908203125,-3.082275390625
0.29052734375,0.8331298828125,0.60498046875,-6.9427490234375,-49.0875244140625,-3.4637451171875
0.2911376953125,0.8275146484375,0.6156005859375,-8.514404296875,-48.08807373046875,-3.65447998046875
0.2891845703125,0.8262939453125,0.6209716796875,-8.5296630859375,-48.2025146484375,-4.669189453125
0.283203125,0.825439453125,0.632568359375,-6.12640380859375,-48.004150390625,-4.78363037109375
0.2830810546875,0.825439453125,0.6319580078125,-3.41033935546875,-49.9267578125,-4.7454833984375
0.2880859375,0.823974609375,0.6256103515625,-0.26702880859375,-51.44500732421875,-4.6539306640625
0.2879638671875,0.8270263671875,0.6185302734375,2.7313232421875,-51.59759521484375,-5.02777099609375
0.283935546875,0.8336181640625,0.613525390625,4.20379638671875,-51.46026611328125,-5.13458251953125
0.2867431640625,0.8353271484375,0.6068115234375,3.1890869140625,-52.1697998046875,-4.6539306640625
0.2908935546875,0.833740234375,0.60302734375,0.99945068359375,-52.06298828125,-4.3182373046875
0.2896728515625,0.8343505859375,0.605712890625,-1.434326171875,-51.1627197265625,-4.57000732421875
0.2882080078125,0.8338623046875,0.6090087890625,-3.7078857421875,-50.5828857421875,-4.84466552734375
0.287353515625,0.832275390625,0.615478515625,-5.0048828125,-50.0640869140625,-4.69970703125
0.279541015625,0.8399658203125,0.61328125,-5.88226318359375,-50.3082275390625,-4.39453125
0.2894287109375,0.830810546875,0.615234375,-7.1563720703125,-50.6591796875,-2.593994140625
0.296875,0.826171875,0.6087646484375,-8.39996337890625,-50.92620849609375,-2.8076171875
0.2906494140625,0.8251953125,0.6221923828125,-7.08770751953125,-48.370361328125,-3.570556640625
0.285400390625,0.8270263671875,0.6260986328125,-5.95855712890625,-48.75946044921875,-4.76837158203125
0.28466796875,0.828369140625,0.6253662109375,-4.02069091796875,-49.49951171875,-4.55474853515625
0.2833251953125,0.8289794921875,0.6279296875,-1.800537109375,-49.7894287109375,-3.60870361328125
0.290771484375,0.825439453125,0.6231689453125,0.00762939453125,-50.62103271484375,-3.021240234375
0.29150390625,0.826171875,0.6181640625,2.02178955078125,-50.689697265625,-3.8299560546875
0.2869873046875,0.8321533203125,0.6134033203125,3.48663330078125,-50.201416015625,-4.7149658203125
0.28515625,0.8355712890625,0.610107421875,2.99835205078125,-50.31585693359375,-4.7760009765625
0.289306640625,0.8343505859375,0.605224609375,0.9918212890625,-50.7965087890625,-4.7454833984375
0.2867431640625,0.83642578125,0.60546875,-1.0528564453125,-50.506591796875,-4.99725341796875
0.28662109375,0.8350830078125,0.6103515625,-3.16619873046875,-50.201416015625,-4.730224609375
0.286865234375,0.831298828125,0.6173095703125,-4.70733642578125,-50.323486328125,-4.50897216796875
0.285888671875,0.831787109375,0.6177978515625,-4.8828125,-50.8270263671875,-4.63104248046875
0.2835693359375,0.8348388671875,0.61669921875,-4.44793701171875,-51.239013671875,-4.1046142578125
0.285400390625,0.8389892578125,0.5999755859375,-5.85174560546875,-52.08587646484375,-2.86102294921875
0.300537109375,0.8309326171875,0.589599609375,-8.9111328125,-50.40740966796875,-1.10626220703125
0.294921875,0.8277587890625,0.6077880859375,-10.58197021484375,-45.013427734375,-0.8697509765625
0.28515625,0.8270263671875,0.6259765625,-12.22991943359375,-43.00689697265625,-2.20489501953125
0.2813720703125,0.8233642578125,0.6417236328125,-12.24517822265625,-44.34967041015625,-2.79998779296875
0.286865234375,0.811767578125,0.6544189453125,-8.64410400390625,-46.62322998046875,-2.8228759765625
0.282958984375,0.817626953125,0.6480712890625,-1.953125,-49.102783203125,-4.29534912109375
0.2760009765625,0.82373046875,0.646240234375,6.1492919921875,-49.3927001953125,-3.570556640625
0.28564453125,0.82373046875,0.6295166015625,10.3759765625,-52.337646484375,-2.593994140625
0.2916259765625,0.8302001953125,0.60693359375,11.41357421875,-54.26025390625,-3.0975341796875
0.2933349609375,0.83447265625,0.5946044921875,9.54437255859375,-53.0242919921875,-3.74603271484375
0.296142578125,0.835205078125,0.5872802734375,4.2572021484375,-51.7578125,-5.096435546875
0.29345703125,0.8341064453125,0.5943603515625,-2.17437744140625,-50.23193359375,-6.96563720703125
0.285400390625,0.83349609375,0.60986328125,-8.026123046875,-49.8199462890625,-8.75091552734375
0.2803955078125,0.8311767578125,0.62548828125,-12.359619140625,-51.8341064453125,-9.8419189453125
0.2808837890625,0.8262939453125,0.634521484375,-13.20648193359375,-54.412841796875,-9.9334716796875
0.270751953125,0.832275390625,0.6376953125,-10.21575927734375,-56.1370849609375,-9.3231201171875
0.28125,0.8310546875,0.61865234375,-7.20977783203125,-58.2733154296875,-6.58416748046875
0.2928466796875,0.8306884765625,0.6031494140625,-5.69915771484375,-56.7626953125,-3.9215087890625
0.295654296875,0.8321533203125,0.595703125,-4.791259765625,-50.66680908203125,-2.28118896484375
0.2928466796875,0.82470703125,0.60595703125,-5.76019287109375,-44.921875,-1.4190673828125
0.28564453125,0.82763671875,0.620361328125,-8.85772705078125,-43.914794921875,-2.410888671875
0.281982421875,0.8218994140625,0.644287109375,-11.199951171875,-45.0286865234375,-2.54058837890625
0.286865234375,0.8094482421875,0.65283203125,-10.33782958984375,-48.828125,-3.47900390625
0.2862548828125,0.8128662109375,0.6510009765625,-2.70843505859375,-50.2777099609375,-5.01251220703125
0.276123046875,0.8226318359375,0.64990234375,8.4381103515625,-48.4619140625,-3.53240966796875
0.28271484375,0.823974609375,0.6346435546875,14.76287841796875,-50.30059814453125,-1.617431640625
0.2919921875,0.8291015625,0.6103515625,15.56396484375,-53.64227294921875,-2.23541259765625
0.2926025390625,0.8367919921875,0.59033203125,12.79449462890625,-54.42047119140625,-3.7841796875
0.2918701171875,0.8397216796875,0.58544921875,6.8206787109375,-53.15399169921875,-4.5928955078125
0.29052734375,0.8411865234375,0.5860595703125,-1.13677978515625,-52.0477294921875,-5.22613525390625
0.2900390625,0.837646484375,0.5992431640625,-7.86590576171875,-50.36163330078125,-5.48553466796875
0.2882080078125,0.8311767578125,0.6146240234375,-11.505126953125,-48.76708984375,-5.218505859375
0.2828369140625,0.828125,0.6298828125,-11.5966796875,-48.08807373046875,-4.8065185546875
0.281494140625,0.8238525390625,0.6422119140625,-8.7890625,-49.17144775390625,-4.29534912109375
0.283203125,0.8221435546875,0.6417236328125,-3.95965576171875,-51.513671875,-4.0435791015625
0.282470703125,0.8275146484375,0.6312255859375,1.77001953125,-52.58941650390625,-3.2501220703125
0.28662109375,0.830322265625,0.618408203125,5.9051513671875,-52.36053466796875,-1.739501953125
0.2965087890625,0.8292236328125,0.605224609375,6.7291259765625,-52.24609375,-2.0599365234375
0.2923583984375,0.8360595703125,0.596923828125,5.27191162109375,-50.96435546875,-3.7841796875
0.287353515625,0.840576171875,0.5955810546875,0.96893310546875,-49.8809814453125,-4.21142578125
0.2908935546875,0.8355712890625,0.598876953125,-4.638671875,-49.84283447265625,-4.15802001953125
0.2906494140625,0.8330078125,0.6051025390625,-8.7127685546875,-49.2706298828125,-4.57000732421875
0.29150390625,0.8271484375,0.6142578125,-10.27679443359375,-48.11859130859375,-4.8370361328125
0.2879638671875,0.8255615234375,0.6240234375,-8.91876220703125,-46.8292236328125,-5.13458251953125
0.284423828125,0.8240966796875,0.63330078125,-5.79071044921875,-46.36383056640625,-5.2032470703125
0.280517578125,0.825927734375,0.6353759765625,-2.6397705078125,-47.9888916015625,-5.62286376953125
0.277099609375,0.8314208984375,0.6302490234375,-0.67901611328125,-51.55181884765625,-5.98907470703125
0.2825927734375,0.8309326171875,0.619873046875,-0.0457763671875,-55.12237548828125,-5.7830810546875
0.28369140625,0.835205078125,0.6090087890625,0.06866455078125,-56.70928955078125,-5.63812255859375
0.281982421875,0.84033203125,0.6036376953125,-0.6256103515625,-56.182861328125,-4.5318603515625
0.2943115234375,0.839599609375,0.582763671875,-3.6163330078125,-55.82427978515625,-3.54766845703125
0.299560546875,0.8345947265625,0.5831298828125,-6.9732666015625,-50.994873046875,-2.227783203125
0.2943115234375,0.8341064453125,0.5965576171875,-10.84136962890625,-45.44830322265625,-1.56402587890625
0.2894287109375,0.8251953125,0.6224365234375,-13.580322265625,-41.9921875,-1.41143798828125
0.2894287109375,0.814453125,0.6444091796875,-13.702392578125,-42.64068603515625,-2.38037109375
0.28076171875,0.81640625,0.656494140625,-9.34600830078125,-44.86846923828125,-4.29534912109375
0.2760009765625,0.8193359375,0.6572265625,-1.88446044921875,-47.41668701171875,-4.23431396484375
0.27978515625,0.821533203125,0.6435546875,5.01251220703125,-50.6744384765625,-2.9754638671875
0.29150390625,0.8214111328125,0.625732421875,9.40704345703125,-53.1768798828125,-2.57110595703125
0.2945556640625,0.8255615234375,0.6104736328125,10.85662841796875,-53.6651611328125,-4.1961669921875
0.2901611328125,0.83544921875,0.5968017578125,8.5601806640625,-53.5736083984375,-6.47735595703125
0.285888671875,0.84033203125,0.5941162109375,3.22723388671875,-52.98614501953125,-7.171630859375
0.2869873046875,0.8372802734375,0.599365234375,-3.34930419921875,-52.86407470703125,-6.96563720703125
0.2874755859375,0.833984375,0.606201171875,-8.47625732421875,-53.09295654296875,-7.26318359375
0.2855224609375,0.8311767578125,0.6165771484375,-10.18524169921875,-52.3834228515625,-7.17926025390625
0.2835693359375,0.8280029296875,0.6240234375,-8.78143310546875,-51.513671875,-6.4849853515625
0.27734375,0.83203125,0.629638671875,-5.157470703125,-51.00250244140625,-5.50079345703125
0.27197265625,0.83984375,0.620849609375,-2.09808349609375,-52.39105224609375,-3.86810302734375
0.28857421875,0.833984375,0.6051025390625,-1.6632080078125,-54.0924072265625,-1.68609619140625
0.2979736328125,0.83056640625,0.593505859375,-2.62451171875,-52.1697998046875,-1.04522705078125
0.2955322265625,0.8271484375,0.6077880859375,-3.27301025390625,-47.027587890625,-1.16729736328125
0.2918701171875,0.8240966796875,0.6219482421875,-4.52423095703125,-45.43304443359375,-3.05938720703125
0.2799072265625,0.8302001953125,0.628662109375,-4.67681884765625,-46.28753662109375,-5.05828857421875
0.2796630859375,0.8292236328125,0.633056640625,-3.5247802734375,-47.75238037109375,-4.3182373046875
0.2862548828125,0.8238525390625,0.62939453125,-2.18963623046875,-49.98779296875,-3.3416748046875
0.293701171875,0.8206787109375,0.6229248046875,-0.457763671875,-51.06353759765625,-3.76129150390625
0.2899169921875,0.8245849609375,0.6226806640625,1.38092041015625,-50.97198486328125,-5.523681640625
0.2828369140625,0.83544921875,0.6129150390625,1.82342529296875,-51.88751220703125,-7.110595703125
0.2830810546875,0.834716796875,0.61376953125,1.04522705078125,-51.9866943359375,-6.2103271484375
0.289306640625,0.8297119140625,0.6136474609375,-1.09100341796875,-53.3294677734375,-5.9356689453125
0.28564453125,0.834228515625,0.6102294921875,-2.78472900390625,-54.34417724609375,-7.08770751953125
0.2850341796875,0.833984375,0.612548828125,-3.6773681640625,-53.7109375,-6.99615478515625
0.2833251953125,0.834228515625,0.613037109375,-3.997802734375,-53.0853271484375,-6.378173828125
0.28076171875,0.83544921875,0.615966796875,-3.4332275390625,-52.23846435546875,-5.25665283203125
0.2794189453125,0.839111328125,0.6097412109375,-3.6163330078125,-52.63519287109375,-4.119873046875
0.2872314453125,0.838134765625,0.598388671875,-5.59234619140625,-53.0242919921875,-2.9144287109375
0.294189453125,0.830322265625,0.6016845703125,-7.659912109375,-50.537109375,-2.105712890625
0.2958984375,0.823974609375,0.614013671875,-8.47625732421875,-47.0428466796875,-2.532958984375
0.285888671875,0.824951171875,0.6309814453125,-7.25555419921875,-44.70062255859375,-3.8909912109375
0.2784423828125,0.8260498046875,0.6402587890625,-5.2337646484375,-45.9747314453125,-4.608154296875
0.2802734375,0.82470703125,0.639404296875,-2.12860107421875,-48.5992431640625,-3.7689208984375
0.2847900390625,0.8238525390625,0.634765625,1.8463134765625,-50.51422119140625,-2.93731689453125
0.2901611328125,0.8258056640625,0.6214599609375,4.69207763671875,-51.94854736328125,-3.143310546875
0.2923583984375,0.8289794921875,0.607177734375,5.95855712890625,-51.84173583984375,-4.08935546875
0.28759765625,0.8360595703125,0.6025390625,5.31768798828125,-50.34637451171875,-4.7149658203125
0.2861328125,0.8367919921875,0.6046142578125,1.71661376953125,-50.1556396484375,-4.99725341796875
0.2864990234375,0.836669921875,0.6033935546875,-3.4637451171875,-52.02484130859375,-6.05010986328125
0.2840576171875,0.836669921875,0.6068115234375,-7.0037841796875,-52.30712890625,-6.18743896484375
0.2852783203125,0.8314208984375,0.61669921875,-8.1939697265625,-51.35345458984375,-5.13458251953125
0.2861328125,0.828369140625,0.6220703125,-7.14874267578125,-51.0711669921875,-4.55474853515625
